"","subject","participant","blocknum","trialnum","blockcode","trialcode","response","correct","latency","ppid"
"1","564",8,1,1,"participant","participant",564,0,5813,"564"
"2","564",8,2,1,"Practice","PrePractice_BOTTOMV",44,1,659,"564"
"3","564",8,2,2,"Practice","PrePractice_TOPV",50,0,522,"564"
"4","564",8,2,3,"Practice","PrePractice_BOTTOMV",44,1,567,"564"
"5","564",8,2,4,"Practice","PrePractice_TOPV",44,1,497,"564"
"6","564",8,2,5,"Practice","PrePractice_BOTTOMH",50,1,487,"564"
"7","564",8,2,6,"Practice","PrePractice_TOPV",44,1,413,"564"
"8","564",8,2,7,"Practice","PrePractice_TOPV",44,1,527,"564"
"9","564",8,2,8,"Practice","PrePractice_BOTTOMV",44,1,491,"564"
"10","564",8,2,9,"Practice","PrePractice_BOTTOMH",50,1,505,"564"
"11","564",8,2,10,"Practice","PrePractice_BOTTOMV",44,1,775,"564"
"12","564",8,2,11,"Practice","PrePractice_BOTTOMH",50,1,665,"564"
"13","564",8,2,12,"Practice","PrePractice_TOPV",44,1,433,"564"
"14","564",8,2,13,"Practice","PrePractice_TOPV",44,1,529,"564"
"15","564",8,2,14,"Practice","PrePractice_BOTTOMH",50,1,461,"564"
"16","564",8,2,15,"Practice","PrePractice_TOPV",44,1,717,"564"
"17","564",8,2,16,"Practice","PrePractice_TOPV",44,1,425,"564"
"18","564",8,3,1,"Assessment1B","PosNegB_TOPCongruentV",44,1,670,"564"
"19","564",8,3,2,"Assessment1B","PosNegB_TOPCongruentH",50,1,513,"564"
"20","564",8,3,3,"Assessment1B","PosNegB_BOTTOMCongruentV",44,1,674,"564"
"21","564",8,3,4,"Assessment1B","PosNegB_TOPIncongruentH",50,1,541,"564"
"22","564",8,3,5,"Assessment1B","PosNegB_TOPIncongruentV",44,1,469,"564"
"23","564",8,3,6,"Assessment1B","PosNegB_BOTTOMIncongruentH",50,1,399,"564"
"24","564",8,3,7,"Assessment1B","PosNegB_BOTTOMCongruentH",50,1,685,"564"
"25","564",8,3,8,"Assessment1B","PosNegB_BOTTOMIncongruentV",44,1,319,"564"
"26","564",8,3,9,"Assessment1B","PosNegB_TOPCongruentH",50,1,447,"564"
"27","564",8,3,10,"Assessment1B","PosNegB_TOPIncongruentH",50,1,339,"564"
"28","564",8,3,11,"Assessment1B","PosNegB_BOTTOMIncongruentV",44,1,371,"564"
"29","564",8,3,12,"Assessment1B","PosNegB_TOPCongruentH",50,1,434,"564"
"30","564",8,3,13,"Assessment1B","PosNegB_BOTTOMIncongruentV",44,1,646,"564"
"31","564",8,3,14,"Assessment1B","PosNegB_BOTTOMCongruentH",50,1,474,"564"
"32","564",8,3,15,"Assessment1B","PosNegB_TOPIncongruentV",44,1,341,"564"
"33","564",8,3,16,"Assessment1B","PosNegB_BOTTOMIncongruentH",50,1,517,"564"
"34","564",8,3,17,"Assessment1B","PosNegB_TOPIncongruentV",44,1,445,"564"
"35","564",8,3,18,"Assessment1B","PosNegB_TOPIncongruentH",50,1,449,"564"
"36","564",8,3,19,"Assessment1B","PosNegB_TOPIncongruentV",44,1,461,"564"
"37","564",8,3,20,"Assessment1B","PosNegB_BOTTOMCongruentV",44,1,536,"564"
"38","564",8,3,21,"Assessment1B","PosNegB_TOPIncongruentH",50,1,384,"564"
"39","564",8,3,22,"Assessment1B","PosNegB_BOTTOMIncongruentH",50,1,614,"564"
"40","564",8,3,23,"Assessment1B","PosNegB_TOPCongruentH",50,1,371,"564"
"41","564",8,3,24,"Assessment1B","PosNegB_BOTTOMIncongruentV",44,1,394,"564"
"42","564",8,3,25,"Assessment1B","PosNegB_TOPIncongruentV",44,1,464,"564"
"43","564",8,3,26,"Assessment1B","PosNegB_BOTTOMCongruentV",44,1,451,"564"
"44","564",8,3,27,"Assessment1B","PosNegB_BOTTOMIncongruentV",44,1,567,"564"
"45","564",8,3,28,"Assessment1B","PosNegB_BOTTOMCongruentV",44,1,605,"564"
"46","564",8,3,29,"Assessment1B","PosNegB_TOPIncongruentH",50,1,411,"564"
"47","564",8,3,30,"Assessment1B","PosNegB_TOPIncongruentV",44,1,560,"564"
"48","564",8,3,31,"Assessment1B","PosNegB_BOTTOMCongruentV",44,1,703,"564"
"49","564",8,3,32,"Assessment1B","PosNegB_TOPCongruentV",44,1,721,"564"
"50","564",8,3,33,"Assessment1B","PosNegB_BOTTOMCongruentH",50,1,505,"564"
"51","564",8,3,34,"Assessment1B","PosNegB_TOPCongruentV",44,1,347,"564"
"52","564",8,3,35,"Assessment1B","PosNegB_BOTTOMIncongruentH",50,1,507,"564"
"53","564",8,3,36,"Assessment1B","PosNegB_BOTTOMCongruentH",44,0,612,"564"
"54","564",8,3,37,"Assessment1B","PosNegB_TOPIncongruentH",50,1,545,"564"
"55","564",8,3,38,"Assessment1B","PosNegB_BOTTOMCongruentH",50,1,513,"564"
"56","564",8,3,39,"Assessment1B","PosNegB_TOPIncongruentV",44,1,459,"564"
"57","564",8,3,40,"Assessment1B","PosNegB_BOTTOMCongruentH",50,1,566,"564"
"58","564",8,3,41,"Assessment1B","PosNegB_TOPIncongruentH",50,1,477,"564"
"59","564",8,3,42,"Assessment1B","PosNegB_BOTTOMIncongruentH",50,1,415,"564"
"60","564",8,3,43,"Assessment1B","PosNegB_TOPCongruentH",50,1,405,"564"
"61","564",8,3,44,"Assessment1B","PosNegB_BOTTOMIncongruentV",44,1,490,"564"
"62","564",8,3,45,"Assessment1B","PosNegB_TOPCongruentV",44,1,396,"564"
"63","564",8,3,46,"Assessment1B","PosNegB_BOTTOMIncongruentV",44,1,498,"564"
"64","564",8,3,47,"Assessment1B","PosNegB_TOPCongruentH",50,1,492,"564"
"65","564",8,3,48,"Assessment1B","PosNegB_TOPCongruentV",44,1,366,"564"
"66","564",8,3,49,"Assessment1B","PosNegB_BOTTOMIncongruentV",44,1,789,"564"
"67","564",8,3,50,"Assessment1B","PosNegB_BOTTOMCongruentV",44,1,955,"564"
"68","564",8,3,51,"Assessment1B","PosNegB_BOTTOMIncongruentH",50,1,386,"564"
"69","564",8,3,52,"Assessment1B","PosNegB_TOPIncongruentH",50,1,416,"564"
"70","564",8,3,53,"Assessment1B","PosNegB_TOPCongruentH",50,1,365,"564"
"71","564",8,3,54,"Assessment1B","PosNegB_BOTTOMIncongruentV",44,1,324,"564"
"72","564",8,3,55,"Assessment1B","PosNegB_TOPIncongruentV",44,1,389,"564"
"73","564",8,3,56,"Assessment1B","PosNegB_TOPIncongruentH",50,1,331,"564"
"74","564",8,3,57,"Assessment1B","PosNegB_BOTTOMCongruentH",50,1,403,"564"
"75","564",8,3,58,"Assessment1B","PosNegB_TOPCongruentV",44,1,585,"564"
"76","564",8,3,59,"Assessment1B","PosNegB_BOTTOMCongruentH",50,1,591,"564"
"77","564",8,3,60,"Assessment1B","PosNegB_TOPCongruentH",50,1,437,"564"
"78","564",8,3,61,"Assessment1B","PosNegB_BOTTOMIncongruentH",44,0,497,"564"
"79","564",8,3,62,"Assessment1B","PosNegB_TOPIncongruentH",50,1,475,"564"
"80","564",8,3,63,"Assessment1B","PosNegB_BOTTOMCongruentV",44,1,565,"564"
"81","564",8,3,64,"Assessment1B","PosNegB_TOPIncongruentV",44,1,773,"564"
"82","564",8,3,65,"Assessment1B","PosNegB_BOTTOMCongruentH",50,1,571,"564"
"83","564",8,3,66,"Assessment1B","PosNegB_TOPIncongruentV",44,1,482,"564"
"84","564",8,3,67,"Assessment1B","PosNegB_TOPCongruentV",44,1,589,"564"
"85","564",8,3,68,"Assessment1B","PosNegB_BOTTOMIncongruentV",44,1,363,"564"
"86","564",8,3,69,"Assessment1B","PosNegB_BOTTOMCongruentV",44,1,538,"564"
"87","564",8,3,70,"Assessment1B","PosNegB_BOTTOMIncongruentH",50,1,450,"564"
"88","564",8,3,71,"Assessment1B","PosNegB_BOTTOMIncongruentV",44,1,557,"564"
"89","564",8,3,72,"Assessment1B","PosNegB_BOTTOMIncongruentH",50,1,469,"564"
"90","564",8,3,73,"Assessment1B","PosNegB_BOTTOMCongruentV",44,1,551,"564"
"91","564",8,3,74,"Assessment1B","PosNegB_TOPIncongruentH",50,1,687,"564"
"92","564",8,3,75,"Assessment1B","PosNegB_BOTTOMIncongruentH",50,1,457,"564"
"93","564",8,3,76,"Assessment1B","PosNegB_TOPCongruentV",44,1,588,"564"
"94","564",8,3,77,"Assessment1B","PosNegB_TOPIncongruentV",44,1,610,"564"
"95","564",8,3,78,"Assessment1B","PosNegB_BOTTOMCongruentH",50,1,551,"564"
"96","564",8,3,79,"Assessment1B","PosNegB_TOPCongruentV",44,1,623,"564"
"97","564",8,3,80,"Assessment1B","PosNegB_BOTTOMIncongruentH",50,1,507,"564"
"98","564",8,3,81,"Assessment1B","PosNegB_BOTTOMIncongruentV",44,1,557,"564"
"99","564",8,3,82,"Assessment1B","PosNegB_TOPCongruentH",50,1,396,"564"
"100","564",8,3,83,"Assessment1B","PosNegB_TOPCongruentV",44,1,434,"564"
"101","564",8,3,84,"Assessment1B","PosNegB_TOPIncongruentV",44,1,470,"564"
"102","564",8,3,85,"Assessment1B","PosNegB_TOPIncongruentH",50,1,457,"564"
"103","564",8,3,86,"Assessment1B","PosNegB_TOPCongruentV",44,1,428,"564"
"104","564",8,3,87,"Assessment1B","PosNegB_BOTTOMCongruentV",44,1,569,"564"
"105","564",8,3,88,"Assessment1B","PosNegB_TOPCongruentV",44,1,583,"564"
"106","564",8,3,89,"Assessment1B","PosNegB_BOTTOMCongruentH",50,1,365,"564"
"107","564",8,3,90,"Assessment1B","PosNegB_BOTTOMIncongruentV",44,1,765,"564"
"108","564",8,3,91,"Assessment1B","PosNegB_BOTTOMCongruentV",44,1,772,"564"
"109","564",8,3,92,"Assessment1B","PosNegB_TOPCongruentH",50,1,443,"564"
"110","564",8,3,93,"Assessment1B","PosNegB_BOTTOMCongruentV",44,1,383,"564"
"111","564",8,3,94,"Assessment1B","PosNegB_BOTTOMIncongruentH",50,1,597,"564"
"112","564",8,3,95,"Assessment1B","PosNegB_TOPCongruentH",50,1,499,"564"
"113","564",8,3,96,"Assessment1B","PosNegB_TOPCongruentV",44,1,469,"564"
"114","564",8,3,97,"Assessment1B","PosNegB_BOTTOMIncongruentH",50,1,527,"564"
"115","564",8,3,98,"Assessment1B","PosNegB_TOPCongruentH",50,1,464,"564"
"116","564",8,3,99,"Assessment1B","PosNegB_BOTTOMCongruentH",50,1,547,"564"
"117","564",8,3,100,"Assessment1B","PosNegB_TOPIncongruentV",44,1,372,"564"
"118","564",8,3,101,"Assessment1B","PosNegB_BOTTOMCongruentV",44,1,570,"564"
"119","564",8,3,102,"Assessment1B","PosNegB_TOPCongruentH",50,1,465,"564"
"120","564",8,3,103,"Assessment1B","PosNegB_TOPIncongruentH",50,1,356,"564"
"121","564",8,3,104,"Assessment1B","PosNegB_BOTTOMCongruentH",50,1,539,"564"
"122","564",8,4,1,"Modification1B","PosNegB_TOPCongruentV",44,1,457,"564"
"123","564",8,4,2,"Modification1B","PosNegB_BOTTOMCongruentH",50,1,556,"564"
"124","564",8,4,3,"Modification1B","PosNegB_BOTTOMCongruentH",50,1,579,"564"
"125","564",8,4,4,"Modification1B","PosNegB_TOPCongruentH",50,1,418,"564"
"126","564",8,4,5,"Modification1B","PosNegB_TOPCongruentH",50,1,471,"564"
"127","564",8,4,6,"Modification1B","PosNegB_TOPCongruentV",44,1,353,"564"
"128","564",8,4,7,"Modification1B","PosNegB_TOPCongruentV",44,1,497,"564"
"129","564",8,4,8,"Modification1B","PosNegB_BOTTOMCongruentV",44,1,427,"564"
"130","564",8,4,9,"Modification1B","PosNegB_TOPCongruentH",50,1,327,"564"
"131","564",8,4,10,"Modification1B","PosNegB_BOTTOMCongruentV",44,1,600,"564"
"132","564",8,4,11,"Modification1B","PosNegB_TOPCongruentV",44,1,613,"564"
"133","564",8,4,12,"Modification1B","PosNegB_TOPCongruentH",50,1,651,"564"
"134","564",8,4,13,"Modification1B","PosNegB_BOTTOMCongruentH",50,1,526,"564"
"135","564",8,4,14,"Modification1B","PosNegB_BOTTOMCongruentV",44,1,543,"564"
"136","564",8,4,15,"Modification1B","PosNegB_BOTTOMCongruentV",44,1,503,"564"
"137","564",8,4,16,"Modification1B","PosNegB_BOTTOMCongruentV",44,1,424,"564"
"138","564",8,4,17,"Modification1B","PosNegB_BOTTOMIncongruentH",50,1,493,"564"
"139","564",8,4,18,"Modification1B","PosNegB_TOPCongruentH",50,1,479,"564"
"140","564",8,4,19,"Modification1B","PosNegB_BOTTOMCongruentH",50,1,457,"564"
"141","564",8,4,20,"Modification1B","PosNegB_TOPCongruentH",44,0,349,"564"
"142","564",8,4,21,"Modification1B","PosNegB_TOPCongruentV",44,1,597,"564"
"143","564",8,4,22,"Modification1B","PosNegB_BOTTOMCongruentH",50,1,611,"564"
"144","564",8,4,23,"Modification1B","PosNegB_TOPCongruentV",44,1,640,"564"
"145","564",8,4,24,"Modification1B","PosNegB_BOTTOMCongruentV",44,1,532,"564"
"146","564",8,4,25,"Modification1B","PosNegB_TOPCongruentH",50,1,309,"564"
"147","564",8,4,26,"Modification1B","PosNegB_TOPCongruentV",44,1,350,"564"
"148","564",8,4,27,"Modification1B","PosNegB_TOPCongruentV",44,1,461,"564"
"149","564",8,4,28,"Modification1B","PosNegB_BOTTOMIncongruentV",44,1,521,"564"
"150","564",8,4,29,"Modification1B","PosNegB_TOPCongruentH",50,1,601,"564"
"151","564",8,4,30,"Modification1B","PosNegB_BOTTOMCongruentV",44,1,431,"564"
"152","564",8,4,31,"Modification1B","PosNegB_BOTTOMCongruentH",50,1,467,"564"
"153","564",8,4,32,"Modification1B","PosNegB_TOPCongruentH",50,1,830,"564"
"154","564",8,4,33,"Modification1B","PosNegB_BOTTOMCongruentV",44,1,371,"564"
"155","564",8,4,34,"Modification1B","PosNegB_BOTTOMCongruentV",44,1,458,"564"
"156","564",8,4,35,"Modification1B","PosNegB_BOTTOMCongruentH",50,1,373,"564"
"157","564",8,4,36,"Modification1B","PosNegB_BOTTOMCongruentV",44,1,371,"564"
"158","564",8,4,37,"Modification1B","PosNegB_TOPCongruentV",50,0,378,"564"
"159","564",8,4,38,"Modification1B","PosNegB_TOPCongruentH",50,1,497,"564"
"160","564",8,4,39,"Modification1B","PosNegB_BOTTOMCongruentH",50,1,699,"564"
"161","564",8,4,40,"Modification1B","PosNegB_TOPCongruentV",44,1,397,"564"
"162","564",8,4,41,"Modification1B","PosNegB_TOPCongruentV",44,1,651,"564"
"163","564",8,4,42,"Modification1B","PosNegB_TOPCongruentH",50,1,398,"564"
"164","564",8,4,43,"Modification1B","PosNegB_BOTTOMCongruentV",44,1,508,"564"
"165","564",8,4,44,"Modification1B","PosNegB_BOTTOMCongruentV",44,1,445,"564"
"166","564",8,4,45,"Modification1B","PosNegB_TOPIncongruentH",50,1,393,"564"
"167","564",8,4,46,"Modification1B","PosNegB_BOTTOMCongruentH",50,1,423,"564"
"168","564",8,4,47,"Modification1B","PosNegB_TOPCongruentV",44,1,452,"564"
"169","564",8,4,48,"Modification1B","PosNegB_TOPCongruentV",44,1,495,"564"
"170","564",8,4,49,"Modification1B","PosNegB_BOTTOMCongruentH",50,1,425,"564"
"171","564",8,4,50,"Modification1B","PosNegB_BOTTOMCongruentV",44,1,614,"564"
"172","564",8,4,51,"Modification1B","PosNegB_TOPCongruentV",50,0,395,"564"
"173","564",8,4,52,"Modification1B","PosNegB_TOPIncongruentV",44,1,673,"564"
"174","564",8,4,53,"Modification1B","PosNegB_BOTTOMCongruentH",50,1,364,"564"
"175","564",8,4,54,"Modification1B","PosNegB_BOTTOMCongruentH",50,1,635,"564"
"176","564",8,4,55,"Modification1B","PosNegB_TOPIncongruentH",50,1,367,"564"
"177","564",8,4,56,"Modification1B","PosNegB_TOPCongruentH",50,1,470,"564"
"178","564",8,4,57,"Modification1B","PosNegB_BOTTOMCongruentV",44,1,777,"564"
"179","564",8,4,58,"Modification1B","PosNegB_TOPCongruentV",44,1,463,"564"
"180","564",8,4,59,"Modification1B","PosNegB_BOTTOMCongruentV",44,1,387,"564"
"181","564",8,4,60,"Modification1B","PosNegB_BOTTOMCongruentH",50,1,289,"564"
"182","564",8,4,61,"Modification1B","PosNegB_BOTTOMCongruentH",50,1,491,"564"
"183","564",8,4,62,"Modification1B","PosNegB_TOPCongruentH",50,1,365,"564"
"184","564",8,4,63,"Modification1B","PosNegB_TOPCongruentH",50,1,308,"564"
"185","564",8,4,64,"Modification1B","PosNegB_BOTTOMCongruentV",44,1,397,"564"
"186","564",8,4,65,"Modification1B","PosNegB_BOTTOMCongruentH",50,1,363,"564"
"187","564",8,4,66,"Modification1B","PosNegB_TOPCongruentH",50,1,443,"564"
"188","564",8,4,67,"Modification1B","PosNegB_BOTTOMCongruentH",44,0,359,"564"
"189","564",8,4,68,"Modification1B","PosNegB_BOTTOMCongruentH",50,1,438,"564"
"190","564",8,4,69,"Modification1B","PosNegB_TOPCongruentV",44,1,546,"564"
"191","564",8,4,70,"Modification1B","PosNegB_BOTTOMCongruentH",50,1,354,"564"
"192","564",8,4,71,"Modification1B","PosNegB_TOPCongruentH",50,1,361,"564"
"193","564",8,4,72,"Modification1B","PosNegB_BOTTOMCongruentV",44,1,553,"564"
"194","564",8,4,73,"Modification1B","PosNegB_BOTTOMCongruentH",50,1,448,"564"
"195","564",8,4,74,"Modification1B","PosNegB_TOPCongruentV",50,0,372,"564"
"196","564",8,4,75,"Modification1B","PosNegB_TOPCongruentH",50,1,531,"564"
"197","564",8,4,76,"Modification1B","PosNegB_BOTTOMCongruentV",44,1,395,"564"
"198","564",8,4,77,"Modification1B","PosNegB_TOPCongruentH",50,1,369,"564"
"199","564",8,4,78,"Modification1B","PosNegB_BOTTOMIncongruentV",44,1,648,"564"
"200","564",8,4,79,"Modification1B","PosNegB_BOTTOMCongruentV",44,1,612,"564"
"201","564",8,4,80,"Modification1B","PosNegB_TOPCongruentV",44,1,409,"564"
"202","564",8,4,81,"Modification1B","PosNegB_BOTTOMIncongruentH",50,1,551,"564"
"203","564",8,4,82,"Modification1B","PosNegB_TOPCongruentV",44,1,694,"564"
"204","564",8,4,83,"Modification1B","PosNegB_TOPCongruentV",44,1,432,"564"
"205","564",8,4,84,"Modification1B","PosNegB_TOPIncongruentV",44,1,485,"564"
"206","564",8,4,85,"Modification1B","PosNegB_TOPCongruentH",50,1,327,"564"
"207","564",8,4,86,"Modification1B","PosNegB_TOPCongruentV",44,1,351,"564"
"208","564",8,4,87,"Modification1B","PosNegB_BOTTOMCongruentH",50,1,431,"564"
"209","564",8,4,88,"Modification1B","PosNegB_BOTTOMCongruentH",50,1,707,"564"
"210","564",8,4,89,"Modification1B","PosNegB_BOTTOMCongruentV",44,1,389,"564"
"211","564",8,4,90,"Modification1B","PosNegB_TOPCongruentV",44,1,515,"564"
"212","564",8,4,91,"Modification1B","PosNegB_BOTTOMCongruentH",50,1,348,"564"
"213","564",8,4,92,"Modification1B","PosNegB_BOTTOMCongruentV",50,0,428,"564"
"214","564",8,4,93,"Modification1B","PosNegB_BOTTOMCongruentV",44,1,553,"564"
"215","564",8,4,94,"Modification1B","PosNegB_TOPCongruentH",50,1,392,"564"
"216","564",8,4,95,"Modification1B","PosNegB_TOPCongruentH",50,1,422,"564"
"217","564",8,4,96,"Modification1B","PosNegB_TOPCongruentH",50,1,363,"564"
"218","564",8,5,1,"Modification2B","PosNegB_TOPCongruentV",44,1,343,"564"
"219","564",8,5,2,"Modification2B","PosNegB_BOTTOMCongruentV",44,1,519,"564"
"220","564",8,5,3,"Modification2B","PosNegB_TOPCongruentH",50,1,400,"564"
"221","564",8,5,4,"Modification2B","PosNegB_TOPCongruentH",50,1,301,"564"
"222","564",8,5,5,"Modification2B","PosNegB_BOTTOMCongruentH",50,1,399,"564"
"223","564",8,5,6,"Modification2B","PosNegB_BOTTOMCongruentH",50,1,397,"564"
"224","564",8,5,7,"Modification2B","PosNegB_TOPCongruentV",44,1,555,"564"
"225","564",8,5,8,"Modification2B","PosNegB_BOTTOMCongruentH",50,1,378,"564"
"226","564",8,5,9,"Modification2B","PosNegB_TOPCongruentH",50,1,441,"564"
"227","564",8,5,10,"Modification2B","PosNegB_BOTTOMCongruentV",44,1,461,"564"
"228","564",8,5,11,"Modification2B","PosNegB_BOTTOMCongruentH",50,1,352,"564"
"229","564",8,5,12,"Modification2B","PosNegB_BOTTOMCongruentH",50,1,383,"564"
"230","564",8,5,13,"Modification2B","PosNegB_BOTTOMCongruentV",44,1,629,"564"
"231","564",8,5,14,"Modification2B","PosNegB_BOTTOMCongruentV",44,1,602,"564"
"232","564",8,5,15,"Modification2B","PosNegB_TOPCongruentV",44,1,447,"564"
"233","564",8,5,16,"Modification2B","PosNegB_BOTTOMCongruentH",50,1,363,"564"
"234","564",8,5,17,"Modification2B","PosNegB_TOPCongruentH",50,1,395,"564"
"235","564",8,5,18,"Modification2B","PosNegB_BOTTOMCongruentV",44,1,369,"564"
"236","564",8,5,19,"Modification2B","PosNegB_TOPCongruentH",50,1,407,"564"
"237","564",8,5,20,"Modification2B","PosNegB_TOPCongruentV",44,1,517,"564"
"238","564",8,5,21,"Modification2B","PosNegB_TOPCongruentV",44,1,421,"564"
"239","564",8,5,22,"Modification2B","PosNegB_TOPIncongruentV",44,1,418,"564"
"240","564",8,5,23,"Modification2B","PosNegB_TOPCongruentH",50,1,335,"564"
"241","564",8,5,24,"Modification2B","PosNegB_BOTTOMCongruentV",44,1,311,"564"
"242","564",8,5,25,"Modification2B","PosNegB_TOPCongruentV",44,1,520,"564"
"243","564",8,5,26,"Modification2B","PosNegB_TOPCongruentV",44,1,497,"564"
"244","564",8,5,27,"Modification2B","PosNegB_BOTTOMCongruentV",44,1,635,"564"
"245","564",8,5,28,"Modification2B","PosNegB_TOPCongruentV",44,1,447,"564"
"246","564",8,5,29,"Modification2B","PosNegB_BOTTOMCongruentV",44,1,339,"564"
"247","564",8,5,30,"Modification2B","PosNegB_TOPCongruentH",50,1,331,"564"
"248","564",8,5,31,"Modification2B","PosNegB_TOPCongruentV",44,1,643,"564"
"249","564",8,5,32,"Modification2B","PosNegB_BOTTOMCongruentV",44,1,415,"564"
"250","564",8,5,33,"Modification2B","PosNegB_BOTTOMCongruentV",44,1,421,"564"
"251","564",8,5,34,"Modification2B","PosNegB_BOTTOMCongruentV",44,1,393,"564"
"252","564",8,5,35,"Modification2B","PosNegB_BOTTOMIncongruentH",50,1,551,"564"
"253","564",8,5,36,"Modification2B","PosNegB_TOPCongruentH",50,1,863,"564"
"254","564",8,5,37,"Modification2B","PosNegB_BOTTOMCongruentH",44,0,354,"564"
"255","564",8,5,38,"Modification2B","PosNegB_BOTTOMCongruentH",50,1,465,"564"
"256","564",8,5,39,"Modification2B","PosNegB_TOPCongruentH",50,1,445,"564"
"257","564",8,5,40,"Modification2B","PosNegB_BOTTOMCongruentV",44,1,481,"564"
"258","564",8,5,41,"Modification2B","PosNegB_TOPCongruentH",50,1,379,"564"
"259","564",8,5,42,"Modification2B","PosNegB_BOTTOMCongruentH",50,1,338,"564"
"260","564",8,5,43,"Modification2B","PosNegB_BOTTOMCongruentV",44,1,418,"564"
"261","564",8,5,44,"Modification2B","PosNegB_TOPIncongruentH",50,1,335,"564"
"262","564",8,5,45,"Modification2B","PosNegB_BOTTOMCongruentH",50,1,375,"564"
"263","564",8,5,46,"Modification2B","PosNegB_TOPCongruentV",44,1,317,"564"
"264","564",8,5,47,"Modification2B","PosNegB_TOPCongruentH",50,1,398,"564"
"265","564",8,5,48,"Modification2B","PosNegB_TOPCongruentH",50,1,284,"564"
"266","564",8,5,49,"Modification2B","PosNegB_BOTTOMCongruentH",50,1,422,"564"
"267","564",8,5,50,"Modification2B","PosNegB_TOPCongruentV",44,1,379,"564"
"268","564",8,5,51,"Modification2B","PosNegB_TOPCongruentH",50,1,465,"564"
"269","564",8,5,52,"Modification2B","PosNegB_TOPCongruentV",44,1,341,"564"
"270","564",8,5,53,"Modification2B","PosNegB_BOTTOMCongruentH",50,1,333,"564"
"271","564",8,5,54,"Modification2B","PosNegB_BOTTOMCongruentV",44,1,349,"564"
"272","564",8,5,55,"Modification2B","PosNegB_TOPCongruentH",50,1,429,"564"
"273","564",8,5,56,"Modification2B","PosNegB_BOTTOMIncongruentH",50,1,833,"564"
"274","564",8,5,57,"Modification2B","PosNegB_TOPCongruentH",50,1,445,"564"
"275","564",8,5,58,"Modification2B","PosNegB_TOPCongruentV",44,1,457,"564"
"276","564",8,5,59,"Modification2B","PosNegB_TOPCongruentV",44,1,933,"564"
"277","564",8,5,60,"Modification2B","PosNegB_BOTTOMCongruentH",50,1,413,"564"
"278","564",8,5,61,"Modification2B","PosNegB_TOPIncongruentH",50,1,362,"564"
"279","564",8,5,62,"Modification2B","PosNegB_BOTTOMCongruentH",50,1,337,"564"
"280","564",8,5,63,"Modification2B","PosNegB_TOPCongruentV",44,1,457,"564"
"281","564",8,5,64,"Modification2B","PosNegB_TOPCongruentH",50,1,693,"564"
"282","564",8,5,65,"Modification2B","PosNegB_BOTTOMCongruentH",50,1,367,"564"
"283","564",8,5,66,"Modification2B","PosNegB_BOTTOMCongruentV",44,1,349,"564"
"284","564",8,5,67,"Modification2B","PosNegB_BOTTOMCongruentH",50,1,357,"564"
"285","564",8,5,68,"Modification2B","PosNegB_BOTTOMIncongruentV",44,1,828,"564"
"286","564",8,5,69,"Modification2B","PosNegB_TOPCongruentV",44,1,505,"564"
"287","564",8,5,70,"Modification2B","PosNegB_BOTTOMCongruentH",50,1,490,"564"
"288","564",8,5,71,"Modification2B","PosNegB_TOPCongruentV",44,1,420,"564"
"289","564",8,5,72,"Modification2B","PosNegB_TOPIncongruentV",44,1,465,"564"
"290","564",8,5,73,"Modification2B","PosNegB_BOTTOMCongruentH",50,1,532,"564"
"291","564",8,5,74,"Modification2B","PosNegB_BOTTOMCongruentV",44,1,701,"564"
"292","564",8,5,75,"Modification2B","PosNegB_BOTTOMCongruentV",44,1,486,"564"
"293","564",8,5,76,"Modification2B","PosNegB_TOPCongruentH",50,1,416,"564"
"294","564",8,5,77,"Modification2B","PosNegB_BOTTOMCongruentV",44,1,749,"564"
"295","564",8,5,78,"Modification2B","PosNegB_TOPCongruentV",44,1,469,"564"
"296","564",8,5,79,"Modification2B","PosNegB_BOTTOMCongruentV",44,1,303,"564"
"297","564",8,5,80,"Modification2B","PosNegB_BOTTOMCongruentV",44,1,465,"564"
"298","564",8,5,81,"Modification2B","PosNegB_TOPCongruentH",50,1,460,"564"
"299","564",8,5,82,"Modification2B","PosNegB_TOPCongruentV",44,1,343,"564"
"300","564",8,5,83,"Modification2B","PosNegB_BOTTOMCongruentV",44,1,335,"564"
"301","564",8,5,84,"Modification2B","PosNegB_TOPCongruentH",50,1,391,"564"
"302","564",8,5,85,"Modification2B","PosNegB_TOPCongruentH",50,1,357,"564"
"303","564",8,5,86,"Modification2B","PosNegB_BOTTOMCongruentH",50,1,421,"564"
"304","564",8,5,87,"Modification2B","PosNegB_BOTTOMCongruentH",50,1,449,"564"
"305","564",8,5,88,"Modification2B","PosNegB_BOTTOMCongruentV",44,1,373,"564"
"306","564",8,5,89,"Modification2B","PosNegB_TOPCongruentH",50,1,347,"564"
"307","564",8,5,90,"Modification2B","PosNegB_BOTTOMCongruentH",50,1,419,"564"
"308","564",8,5,91,"Modification2B","PosNegB_TOPCongruentV",44,1,456,"564"
"309","564",8,5,92,"Modification2B","PosNegB_TOPCongruentH",50,1,315,"564"
"310","564",8,5,93,"Modification2B","PosNegB_TOPCongruentV",44,1,341,"564"
"311","564",8,5,94,"Modification2B","PosNegB_TOPCongruentV",44,1,413,"564"
"312","564",8,5,95,"Modification2B","PosNegB_BOTTOMCongruentH",50,1,386,"564"
"313","564",8,5,96,"Modification2B","PosNegB_BOTTOMIncongruentV",44,1,872,"564"
"314","564",8,6,1,"Modification3B","PosNegB_BOTTOMCongruentV",50,0,504,"564"
"315","564",8,6,2,"Modification3B","PosNegB_BOTTOMCongruentH",50,1,777,"564"
"316","564",8,6,3,"Modification3B","PosNegB_BOTTOMIncongruentV",44,1,736,"564"
"317","564",8,6,4,"Modification3B","PosNegB_BOTTOMCongruentV",44,1,504,"564"
"318","564",8,6,5,"Modification3B","PosNegB_TOPCongruentV",44,1,433,"564"
"319","564",8,6,6,"Modification3B","PosNegB_TOPCongruentV",44,1,469,"564"
"320","564",8,6,7,"Modification3B","PosNegB_BOTTOMCongruentH",50,1,400,"564"
"321","564",8,6,8,"Modification3B","PosNegB_BOTTOMIncongruentH",50,1,685,"564"
"322","564",8,6,9,"Modification3B","PosNegB_TOPIncongruentH",50,1,607,"564"
"323","564",8,6,10,"Modification3B","PosNegB_BOTTOMCongruentH",50,1,445,"564"
"324","564",8,6,11,"Modification3B","PosNegB_BOTTOMCongruentV",44,1,569,"564"
"325","564",8,6,12,"Modification3B","PosNegB_TOPCongruentH",50,1,311,"564"
"326","564",8,6,13,"Modification3B","PosNegB_TOPCongruentH",50,1,321,"564"
"327","564",8,6,14,"Modification3B","PosNegB_TOPCongruentH",50,1,345,"564"
"328","564",8,6,15,"Modification3B","PosNegB_BOTTOMCongruentH",50,1,417,"564"
"329","564",8,6,16,"Modification3B","PosNegB_BOTTOMCongruentV",44,1,470,"564"
"330","564",8,6,17,"Modification3B","PosNegB_TOPCongruentH",50,1,369,"564"
"331","564",8,6,18,"Modification3B","PosNegB_BOTTOMCongruentV",44,1,335,"564"
"332","564",8,6,19,"Modification3B","PosNegB_TOPCongruentV",44,1,431,"564"
"333","564",8,6,20,"Modification3B","PosNegB_BOTTOMCongruentH",50,1,396,"564"
"334","564",8,6,21,"Modification3B","PosNegB_TOPCongruentV",44,1,362,"564"
"335","564",8,6,22,"Modification3B","PosNegB_BOTTOMCongruentH",50,1,369,"564"
"336","564",8,6,23,"Modification3B","PosNegB_TOPCongruentH",50,1,360,"564"
"337","564",8,6,24,"Modification3B","PosNegB_BOTTOMCongruentV",44,1,367,"564"
"338","564",8,6,25,"Modification3B","PosNegB_TOPCongruentV",44,1,430,"564"
"339","564",8,6,26,"Modification3B","PosNegB_TOPCongruentH",50,1,331,"564"
"340","564",8,6,27,"Modification3B","PosNegB_TOPCongruentV",44,1,395,"564"
"341","564",8,6,28,"Modification3B","PosNegB_TOPCongruentH",50,1,321,"564"
"342","564",8,6,29,"Modification3B","PosNegB_TOPCongruentH",50,1,370,"564"
"343","564",8,6,30,"Modification3B","PosNegB_TOPCongruentH",50,1,353,"564"
"344","564",8,6,31,"Modification3B","PosNegB_TOPCongruentH",50,1,336,"564"
"345","564",8,6,32,"Modification3B","PosNegB_TOPCongruentH",50,1,336,"564"
"346","564",8,6,33,"Modification3B","PosNegB_TOPCongruentH",50,1,408,"564"
"347","564",8,6,34,"Modification3B","PosNegB_TOPCongruentH",50,1,285,"564"
"348","564",8,6,35,"Modification3B","PosNegB_TOPCongruentH",50,1,319,"564"
"349","564",8,6,36,"Modification3B","PosNegB_TOPCongruentH",50,1,320,"564"
"350","564",8,6,37,"Modification3B","PosNegB_TOPCongruentV",50,0,265,"564"
"351","564",8,6,38,"Modification3B","PosNegB_TOPCongruentH",50,1,380,"564"
"352","564",8,6,39,"Modification3B","PosNegB_TOPCongruentV",44,1,379,"564"
"353","564",8,6,40,"Modification3B","PosNegB_BOTTOMCongruentV",44,1,369,"564"
"354","564",8,6,41,"Modification3B","PosNegB_TOPCongruentH",50,1,648,"564"
"355","564",8,6,42,"Modification3B","PosNegB_BOTTOMCongruentV",44,1,356,"564"
"356","564",8,6,43,"Modification3B","PosNegB_TOPCongruentV",44,1,403,"564"
"357","564",8,6,44,"Modification3B","PosNegB_TOPCongruentV",44,1,425,"564"
"358","564",8,6,45,"Modification3B","PosNegB_BOTTOMCongruentH",50,1,717,"564"
"359","564",8,6,46,"Modification3B","PosNegB_BOTTOMCongruentH",50,1,462,"564"
"360","564",8,6,47,"Modification3B","PosNegB_BOTTOMCongruentV",44,1,441,"564"
"361","564",8,6,48,"Modification3B","PosNegB_TOPCongruentV",44,1,469,"564"
"362","564",8,6,49,"Modification3B","PosNegB_TOPCongruentV",44,1,424,"564"
"363","564",8,6,50,"Modification3B","PosNegB_BOTTOMCongruentH",50,1,301,"564"
"364","564",8,6,51,"Modification3B","PosNegB_TOPCongruentH",50,1,374,"564"
"365","564",8,6,52,"Modification3B","PosNegB_TOPCongruentV",44,1,381,"564"
"366","564",8,6,53,"Modification3B","PosNegB_BOTTOMCongruentH",50,1,347,"564"
"367","564",8,6,54,"Modification3B","PosNegB_BOTTOMCongruentV",44,1,675,"564"
"368","564",8,6,55,"Modification3B","PosNegB_TOPIncongruentV",44,1,558,"564"
"369","564",8,6,56,"Modification3B","PosNegB_TOPCongruentV",44,1,437,"564"
"370","564",8,6,57,"Modification3B","PosNegB_TOPCongruentV",44,1,633,"564"
"371","564",8,6,58,"Modification3B","PosNegB_TOPCongruentV",44,1,453,"564"
"372","564",8,6,59,"Modification3B","PosNegB_TOPIncongruentH",50,1,345,"564"
"373","564",8,6,60,"Modification3B","PosNegB_TOPCongruentV",44,1,385,"564"
"374","564",8,6,61,"Modification3B","PosNegB_TOPCongruentH",50,1,295,"564"
"375","564",8,6,62,"Modification3B","PosNegB_BOTTOMCongruentV",44,1,321,"564"
"376","564",8,6,63,"Modification3B","PosNegB_BOTTOMCongruentH",50,1,305,"564"
"377","564",8,6,64,"Modification3B","PosNegB_TOPIncongruentV",44,1,331,"564"
"378","564",8,6,65,"Modification3B","PosNegB_BOTTOMCongruentH",50,1,307,"564"
"379","564",8,6,66,"Modification3B","PosNegB_BOTTOMCongruentV",44,1,493,"564"
"380","564",8,6,67,"Modification3B","PosNegB_TOPCongruentV",44,1,479,"564"
"381","564",8,6,68,"Modification3B","PosNegB_BOTTOMCongruentV",44,1,473,"564"
"382","564",8,6,69,"Modification3B","PosNegB_TOPCongruentV",44,1,436,"564"
"383","564",8,6,70,"Modification3B","PosNegB_BOTTOMIncongruentH",50,1,672,"564"
"384","564",8,6,71,"Modification3B","PosNegB_BOTTOMCongruentH",50,1,491,"564"
"385","564",8,6,72,"Modification3B","PosNegB_BOTTOMCongruentH",50,1,389,"564"
"386","564",8,6,73,"Modification3B","PosNegB_BOTTOMCongruentH",50,1,371,"564"
"387","564",8,6,74,"Modification3B","PosNegB_BOTTOMCongruentV",44,1,481,"564"
"388","564",8,6,75,"Modification3B","PosNegB_BOTTOMCongruentH",50,1,380,"564"
"389","564",8,6,76,"Modification3B","PosNegB_BOTTOMCongruentH",50,1,387,"564"
"390","564",8,6,77,"Modification3B","PosNegB_BOTTOMCongruentH",50,1,329,"564"
"391","564",8,6,78,"Modification3B","PosNegB_BOTTOMCongruentV",44,1,409,"564"
"392","564",8,6,79,"Modification3B","PosNegB_TOPCongruentH",50,1,375,"564"
"393","564",8,6,80,"Modification3B","PosNegB_TOPCongruentV",44,1,453,"564"
"394","564",8,6,81,"Modification3B","PosNegB_BOTTOMCongruentV",50,0,377,"564"
"395","564",8,6,82,"Modification3B","PosNegB_BOTTOMCongruentV",44,1,583,"564"
"396","564",8,6,83,"Modification3B","PosNegB_BOTTOMCongruentV",44,1,413,"564"
"397","564",8,6,84,"Modification3B","PosNegB_BOTTOMCongruentV",44,1,499,"564"
"398","564",8,6,85,"Modification3B","PosNegB_BOTTOMCongruentH",50,1,357,"564"
"399","564",8,6,86,"Modification3B","PosNegB_BOTTOMCongruentH",50,1,476,"564"
"400","564",8,6,87,"Modification3B","PosNegB_BOTTOMCongruentH",50,1,431,"564"
"401","564",8,6,88,"Modification3B","PosNegB_TOPCongruentV",44,1,411,"564"
"402","564",8,6,89,"Modification3B","PosNegB_TOPCongruentH",50,1,537,"564"
"403","564",8,6,90,"Modification3B","PosNegB_TOPCongruentV",44,1,377,"564"
"404","564",8,6,91,"Modification3B","PosNegB_BOTTOMIncongruentV",44,1,696,"564"
"405","564",8,6,92,"Modification3B","PosNegB_BOTTOMCongruentH",50,1,321,"564"
"406","564",8,6,93,"Modification3B","PosNegB_BOTTOMCongruentV",44,1,442,"564"
"407","564",8,6,94,"Modification3B","PosNegB_BOTTOMCongruentV",44,1,454,"564"
"408","564",8,6,95,"Modification3B","PosNegB_BOTTOMCongruentV",44,1,393,"564"
"409","564",8,6,96,"Modification3B","PosNegB_TOPCongruentH",50,1,351,"564"
"410","564",8,7,1,"break","break1",0,0,120000,"564"
"411","564",8,8,1,"Modification4B","PosNegB_TOPCongruentV",44,1,465,"564"
"412","564",8,8,2,"Modification4B","PosNegB_BOTTOMCongruentV",44,1,372,"564"
"413","564",8,8,3,"Modification4B","PosNegB_BOTTOMCongruentH",50,1,339,"564"
"414","564",8,8,4,"Modification4B","PosNegB_TOPCongruentV",44,1,307,"564"
"415","564",8,8,5,"Modification4B","PosNegB_BOTTOMCongruentV",50,0,356,"564"
"416","564",8,8,6,"Modification4B","PosNegB_BOTTOMCongruentH",50,1,715,"564"
"417","564",8,8,7,"Modification4B","PosNegB_BOTTOMCongruentH",50,1,429,"564"
"418","564",8,8,8,"Modification4B","PosNegB_BOTTOMCongruentV",44,1,345,"564"
"419","564",8,8,9,"Modification4B","PosNegB_TOPIncongruentV",44,1,329,"564"
"420","564",8,8,10,"Modification4B","PosNegB_BOTTOMIncongruentV",44,1,602,"564"
"421","564",8,8,11,"Modification4B","PosNegB_TOPCongruentH",50,1,375,"564"
"422","564",8,8,12,"Modification4B","PosNegB_BOTTOMCongruentV",44,1,350,"564"
"423","564",8,8,13,"Modification4B","PosNegB_BOTTOMCongruentH",50,1,341,"564"
"424","564",8,8,14,"Modification4B","PosNegB_TOPCongruentV",44,1,509,"564"
"425","564",8,8,15,"Modification4B","PosNegB_BOTTOMIncongruentH",50,1,583,"564"
"426","564",8,8,16,"Modification4B","PosNegB_TOPCongruentH",50,1,437,"564"
"427","564",8,8,17,"Modification4B","PosNegB_TOPCongruentH",50,1,529,"564"
"428","564",8,8,18,"Modification4B","PosNegB_TOPCongruentV",44,1,353,"564"
"429","564",8,8,19,"Modification4B","PosNegB_TOPCongruentH",50,1,321,"564"
"430","564",8,8,20,"Modification4B","PosNegB_TOPCongruentH",50,1,393,"564"
"431","564",8,8,21,"Modification4B","PosNegB_TOPCongruentH",50,1,335,"564"
"432","564",8,8,22,"Modification4B","PosNegB_TOPCongruentV",44,1,487,"564"
"433","564",8,8,23,"Modification4B","PosNegB_TOPCongruentH",50,1,385,"564"
"434","564",8,8,24,"Modification4B","PosNegB_BOTTOMCongruentV",44,1,383,"564"
"435","564",8,8,25,"Modification4B","PosNegB_BOTTOMCongruentV",44,1,389,"564"
"436","564",8,8,26,"Modification4B","PosNegB_BOTTOMCongruentH",50,1,387,"564"
"437","564",8,8,27,"Modification4B","PosNegB_BOTTOMCongruentH",50,1,418,"564"
"438","564",8,8,28,"Modification4B","PosNegB_BOTTOMCongruentH",50,1,350,"564"
"439","564",8,8,29,"Modification4B","PosNegB_BOTTOMCongruentH",50,1,373,"564"
"440","564",8,8,30,"Modification4B","PosNegB_BOTTOMCongruentH",50,1,372,"564"
"441","564",8,8,31,"Modification4B","PosNegB_TOPCongruentV",44,1,347,"564"
"442","564",8,8,32,"Modification4B","PosNegB_BOTTOMCongruentV",44,1,555,"564"
"443","564",8,8,33,"Modification4B","PosNegB_TOPCongruentV",44,1,498,"564"
"444","564",8,8,34,"Modification4B","PosNegB_TOPCongruentH",50,1,284,"564"
"445","564",8,8,35,"Modification4B","PosNegB_TOPCongruentH",50,1,270,"564"
"446","564",8,8,36,"Modification4B","PosNegB_TOPIncongruentH",50,1,369,"564"
"447","564",8,8,37,"Modification4B","PosNegB_TOPCongruentV",44,1,407,"564"
"448","564",8,8,38,"Modification4B","PosNegB_TOPCongruentH",50,1,389,"564"
"449","564",8,8,39,"Modification4B","PosNegB_TOPIncongruentH",50,1,315,"564"
"450","564",8,8,40,"Modification4B","PosNegB_TOPCongruentH",50,1,364,"564"
"451","564",8,8,41,"Modification4B","PosNegB_TOPCongruentV",44,1,403,"564"
"452","564",8,8,42,"Modification4B","PosNegB_BOTTOMCongruentV",44,1,425,"564"
"453","564",8,8,43,"Modification4B","PosNegB_TOPCongruentH",50,1,389,"564"
"454","564",8,8,44,"Modification4B","PosNegB_BOTTOMCongruentH",50,1,379,"564"
"455","564",8,8,45,"Modification4B","PosNegB_TOPCongruentV",44,1,338,"564"
"456","564",8,8,46,"Modification4B","PosNegB_TOPCongruentV",50,0,306,"564"
"457","564",8,8,47,"Modification4B","PosNegB_BOTTOMCongruentH",50,1,315,"564"
"458","564",8,8,48,"Modification4B","PosNegB_TOPCongruentH",50,1,397,"564"
"459","564",8,8,49,"Modification4B","PosNegB_BOTTOMCongruentV",44,1,379,"564"
"460","564",8,8,50,"Modification4B","PosNegB_BOTTOMCongruentH",50,1,289,"564"
"461","564",8,8,51,"Modification4B","PosNegB_TOPCongruentV",44,1,355,"564"
"462","564",8,8,52,"Modification4B","PosNegB_TOPCongruentH",50,1,451,"564"
"463","564",8,8,53,"Modification4B","PosNegB_TOPCongruentH",50,1,382,"564"
"464","564",8,8,54,"Modification4B","PosNegB_TOPCongruentV",44,1,549,"564"
"465","564",8,8,55,"Modification4B","PosNegB_TOPCongruentH",50,1,421,"564"
"466","564",8,8,56,"Modification4B","PosNegB_BOTTOMCongruentH",50,1,441,"564"
"467","564",8,8,57,"Modification4B","PosNegB_TOPCongruentH",50,1,429,"564"
"468","564",8,8,58,"Modification4B","PosNegB_TOPCongruentV",44,1,306,"564"
"469","564",8,8,59,"Modification4B","PosNegB_TOPCongruentV",44,1,356,"564"
"470","564",8,8,60,"Modification4B","PosNegB_BOTTOMCongruentV",44,1,395,"564"
"471","564",8,8,61,"Modification4B","PosNegB_BOTTOMCongruentH",50,1,377,"564"
"472","564",8,8,62,"Modification4B","PosNegB_TOPCongruentV",44,1,375,"564"
"473","564",8,8,63,"Modification4B","PosNegB_BOTTOMCongruentV",44,1,374,"564"
"474","564",8,8,64,"Modification4B","PosNegB_TOPCongruentV",44,1,397,"564"
"475","564",8,8,65,"Modification4B","PosNegB_BOTTOMCongruentH",50,1,315,"564"
"476","564",8,8,66,"Modification4B","PosNegB_BOTTOMCongruentH",50,1,396,"564"
"477","564",8,8,67,"Modification4B","PosNegB_BOTTOMCongruentV",44,1,442,"564"
"478","564",8,8,68,"Modification4B","PosNegB_BOTTOMIncongruentH",50,1,742,"564"
"479","564",8,8,69,"Modification4B","PosNegB_TOPIncongruentV",44,1,438,"564"
"480","564",8,8,70,"Modification4B","PosNegB_BOTTOMCongruentH",44,0,394,"564"
"481","564",8,8,71,"Modification4B","PosNegB_BOTTOMCongruentV",44,1,464,"564"
"482","564",8,8,72,"Modification4B","PosNegB_BOTTOMCongruentH",50,1,355,"564"
"483","564",8,8,73,"Modification4B","PosNegB_TOPCongruentH",50,1,307,"564"
"484","564",8,8,74,"Modification4B","PosNegB_TOPCongruentH",50,1,372,"564"
"485","564",8,8,75,"Modification4B","PosNegB_TOPCongruentV",44,1,475,"564"
"486","564",8,8,76,"Modification4B","PosNegB_BOTTOMCongruentV",44,1,445,"564"
"487","564",8,8,77,"Modification4B","PosNegB_TOPCongruentV",44,1,553,"564"
"488","564",8,8,78,"Modification4B","PosNegB_TOPCongruentH",50,1,305,"564"
"489","564",8,8,79,"Modification4B","PosNegB_BOTTOMCongruentH",50,1,418,"564"
"490","564",8,8,80,"Modification4B","PosNegB_BOTTOMCongruentV",44,1,399,"564"
"491","564",8,8,81,"Modification4B","PosNegB_BOTTOMIncongruentV",44,1,789,"564"
"492","564",8,8,82,"Modification4B","PosNegB_TOPCongruentV",44,1,603,"564"
"493","564",8,8,83,"Modification4B","PosNegB_BOTTOMCongruentH",50,1,344,"564"
"494","564",8,8,84,"Modification4B","PosNegB_TOPCongruentH",50,1,400,"564"
"495","564",8,8,85,"Modification4B","PosNegB_BOTTOMCongruentV",44,1,333,"564"
"496","564",8,8,86,"Modification4B","PosNegB_BOTTOMCongruentV",44,1,349,"564"
"497","564",8,8,87,"Modification4B","PosNegB_BOTTOMCongruentH",44,0,381,"564"
"498","564",8,8,88,"Modification4B","PosNegB_BOTTOMCongruentV",44,1,499,"564"
"499","564",8,8,89,"Modification4B","PosNegB_TOPCongruentH",50,1,309,"564"
"500","564",8,8,90,"Modification4B","PosNegB_BOTTOMCongruentH",50,1,382,"564"
"501","564",8,8,91,"Modification4B","PosNegB_TOPCongruentV",44,1,445,"564"
"502","564",8,8,92,"Modification4B","PosNegB_BOTTOMCongruentV",44,1,617,"564"
"503","564",8,8,93,"Modification4B","PosNegB_TOPCongruentV",44,1,533,"564"
"504","564",8,8,94,"Modification4B","PosNegB_BOTTOMCongruentV",44,1,437,"564"
"505","564",8,8,95,"Modification4B","PosNegB_BOTTOMCongruentV",44,1,441,"564"
"506","564",8,8,96,"Modification4B","PosNegB_BOTTOMCongruentV",44,1,453,"564"
"507","564",8,9,1,"Modification5B","PosNegB_TOPCongruentV",44,1,966,"564"
"508","564",8,9,2,"Modification5B","PosNegB_TOPCongruentH",50,1,445,"564"
"509","564",8,9,3,"Modification5B","PosNegB_BOTTOMIncongruentV",44,1,865,"564"
"510","564",8,9,4,"Modification5B","PosNegB_BOTTOMCongruentH",50,1,484,"564"
"511","564",8,9,5,"Modification5B","PosNegB_BOTTOMCongruentV",44,1,654,"564"
"512","564",8,9,6,"Modification5B","PosNegB_TOPCongruentV",44,1,473,"564"
"513","564",8,9,7,"Modification5B","PosNegB_BOTTOMCongruentV",44,1,476,"564"
"514","564",8,9,8,"Modification5B","PosNegB_BOTTOMCongruentH",50,1,383,"564"
"515","564",8,9,9,"Modification5B","PosNegB_TOPCongruentV",44,1,565,"564"
"516","564",8,9,10,"Modification5B","PosNegB_TOPCongruentV",44,1,436,"564"
"517","564",8,9,11,"Modification5B","PosNegB_TOPIncongruentV",44,1,376,"564"
"518","564",8,9,12,"Modification5B","PosNegB_BOTTOMCongruentV",44,1,463,"564"
"519","564",8,9,13,"Modification5B","PosNegB_BOTTOMIncongruentH",50,1,602,"564"
"520","564",8,9,14,"Modification5B","PosNegB_BOTTOMCongruentH",50,1,575,"564"
"521","564",8,9,15,"Modification5B","PosNegB_BOTTOMCongruentH",50,1,366,"564"
"522","564",8,9,16,"Modification5B","PosNegB_BOTTOMCongruentV",44,1,685,"564"
"523","564",8,9,17,"Modification5B","PosNegB_TOPCongruentH",50,1,487,"564"
"524","564",8,9,18,"Modification5B","PosNegB_BOTTOMIncongruentH",50,1,737,"564"
"525","564",8,9,19,"Modification5B","PosNegB_TOPCongruentV",44,1,609,"564"
"526","564",8,9,20,"Modification5B","PosNegB_BOTTOMCongruentH",50,1,342,"564"
"527","564",8,9,21,"Modification5B","PosNegB_TOPCongruentV",44,1,334,"564"
"528","564",8,9,22,"Modification5B","PosNegB_TOPCongruentH",50,1,302,"564"
"529","564",8,9,23,"Modification5B","PosNegB_BOTTOMCongruentH",50,1,367,"564"
"530","564",8,9,24,"Modification5B","PosNegB_TOPCongruentV",44,1,382,"564"
"531","564",8,9,25,"Modification5B","PosNegB_BOTTOMCongruentV",44,1,437,"564"
"532","564",8,9,26,"Modification5B","PosNegB_BOTTOMCongruentH",50,1,425,"564"
"533","564",8,9,27,"Modification5B","PosNegB_BOTTOMCongruentV",44,1,357,"564"
"534","564",8,9,28,"Modification5B","PosNegB_TOPIncongruentH",50,1,365,"564"
"535","564",8,9,29,"Modification5B","PosNegB_TOPCongruentH",50,1,396,"564"
"536","564",8,9,30,"Modification5B","PosNegB_BOTTOMIncongruentV",44,1,778,"564"
"537","564",8,9,31,"Modification5B","PosNegB_BOTTOMCongruentH",50,1,481,"564"
"538","564",8,9,32,"Modification5B","PosNegB_BOTTOMCongruentV",44,1,403,"564"
"539","564",8,9,33,"Modification5B","PosNegB_BOTTOMCongruentH",50,1,353,"564"
"540","564",8,9,34,"Modification5B","PosNegB_BOTTOMCongruentH",50,1,376,"564"
"541","564",8,9,35,"Modification5B","PosNegB_TOPCongruentH",50,1,455,"564"
"542","564",8,9,36,"Modification5B","PosNegB_BOTTOMCongruentV",44,1,522,"564"
"543","564",8,9,37,"Modification5B","PosNegB_BOTTOMCongruentH",50,1,947,"564"
"544","564",8,9,38,"Modification5B","PosNegB_BOTTOMCongruentV",44,1,403,"564"
"545","564",8,9,39,"Modification5B","PosNegB_TOPCongruentH",50,1,336,"564"
"546","564",8,9,40,"Modification5B","PosNegB_TOPCongruentV",44,1,456,"564"
"547","564",8,9,41,"Modification5B","PosNegB_BOTTOMCongruentV",44,1,419,"564"
"548","564",8,9,42,"Modification5B","PosNegB_TOPCongruentH",50,1,328,"564"
"549","564",8,9,43,"Modification5B","PosNegB_BOTTOMCongruentV",44,1,457,"564"
"550","564",8,9,44,"Modification5B","PosNegB_TOPCongruentV",44,1,420,"564"
"551","564",8,9,45,"Modification5B","PosNegB_TOPCongruentH",50,1,353,"564"
"552","564",8,9,46,"Modification5B","PosNegB_TOPCongruentV",44,1,392,"564"
"553","564",8,9,47,"Modification5B","PosNegB_TOPCongruentV",44,1,534,"564"
"554","564",8,9,48,"Modification5B","PosNegB_BOTTOMCongruentH",50,1,350,"564"
"555","564",8,9,49,"Modification5B","PosNegB_TOPCongruentV",44,1,437,"564"
"556","564",8,9,50,"Modification5B","PosNegB_BOTTOMCongruentH",50,1,313,"564"
"557","564",8,9,51,"Modification5B","PosNegB_BOTTOMCongruentH",50,1,427,"564"
"558","564",8,9,52,"Modification5B","PosNegB_TOPCongruentH",50,1,639,"564"
"559","564",8,9,53,"Modification5B","PosNegB_BOTTOMCongruentH",50,1,347,"564"
"560","564",8,9,54,"Modification5B","PosNegB_TOPCongruentV",44,1,355,"564"
"561","564",8,9,55,"Modification5B","PosNegB_BOTTOMCongruentH",50,1,387,"564"
"562","564",8,9,56,"Modification5B","PosNegB_BOTTOMCongruentV",44,1,409,"564"
"563","564",8,9,57,"Modification5B","PosNegB_TOPCongruentV",44,1,398,"564"
"564","564",8,9,58,"Modification5B","PosNegB_BOTTOMCongruentV",50,0,332,"564"
"565","564",8,9,59,"Modification5B","PosNegB_BOTTOMCongruentV",44,1,485,"564"
"566","564",8,9,60,"Modification5B","PosNegB_TOPCongruentV",44,1,399,"564"
"567","564",8,9,61,"Modification5B","PosNegB_TOPCongruentV",44,1,381,"564"
"568","564",8,9,62,"Modification5B","PosNegB_BOTTOMCongruentV",44,1,411,"564"
"569","564",8,9,63,"Modification5B","PosNegB_BOTTOMCongruentH",50,1,401,"564"
"570","564",8,9,64,"Modification5B","PosNegB_TOPIncongruentH",50,1,502,"564"
"571","564",8,9,65,"Modification5B","PosNegB_TOPIncongruentV",44,1,295,"564"
"572","564",8,9,66,"Modification5B","PosNegB_TOPCongruentH",50,1,465,"564"
"573","564",8,9,67,"Modification5B","PosNegB_BOTTOMCongruentH",50,1,397,"564"
"574","564",8,9,68,"Modification5B","PosNegB_BOTTOMCongruentH",50,1,371,"564"
"575","564",8,9,69,"Modification5B","PosNegB_TOPCongruentH",50,1,625,"564"
"576","564",8,9,70,"Modification5B","PosNegB_TOPCongruentH",50,1,382,"564"
"577","564",8,9,71,"Modification5B","PosNegB_TOPCongruentH",50,1,357,"564"
"578","564",8,9,72,"Modification5B","PosNegB_TOPCongruentH",50,1,444,"564"
"579","564",8,9,73,"Modification5B","PosNegB_TOPCongruentH",50,1,368,"564"
"580","564",8,9,74,"Modification5B","PosNegB_TOPCongruentV",50,0,351,"564"
"581","564",8,9,75,"Modification5B","PosNegB_BOTTOMCongruentV",44,1,366,"564"
"582","564",8,9,76,"Modification5B","PosNegB_TOPCongruentH",50,1,365,"564"
"583","564",8,9,77,"Modification5B","PosNegB_TOPCongruentH",50,1,348,"564"
"584","564",8,9,78,"Modification5B","PosNegB_BOTTOMCongruentV",44,1,436,"564"
"585","564",8,9,79,"Modification5B","PosNegB_TOPCongruentH",50,1,376,"564"
"586","564",8,9,80,"Modification5B","PosNegB_BOTTOMCongruentH",50,1,471,"564"
"587","564",8,9,81,"Modification5B","PosNegB_TOPCongruentH",50,1,401,"564"
"588","564",8,9,82,"Modification5B","PosNegB_TOPCongruentV",50,0,359,"564"
"589","564",8,9,83,"Modification5B","PosNegB_BOTTOMCongruentV",44,1,470,"564"
"590","564",8,9,84,"Modification5B","PosNegB_TOPCongruentH",50,1,369,"564"
"591","564",8,9,85,"Modification5B","PosNegB_TOPCongruentV",44,1,487,"564"
"592","564",8,9,86,"Modification5B","PosNegB_BOTTOMCongruentV",44,1,465,"564"
"593","564",8,9,87,"Modification5B","PosNegB_BOTTOMCongruentH",50,1,341,"564"
"594","564",8,9,88,"Modification5B","PosNegB_TOPCongruentV",44,1,349,"564"
"595","564",8,9,89,"Modification5B","PosNegB_BOTTOMCongruentV",44,1,533,"564"
"596","564",8,9,90,"Modification5B","PosNegB_TOPCongruentV",44,1,365,"564"
"597","564",8,9,91,"Modification5B","PosNegB_TOPCongruentH",50,1,356,"564"
"598","564",8,9,92,"Modification5B","PosNegB_BOTTOMCongruentV",44,1,451,"564"
"599","564",8,9,93,"Modification5B","PosNegB_BOTTOMCongruentH",50,1,391,"564"
"600","564",8,9,94,"Modification5B","PosNegB_TOPCongruentH",50,1,437,"564"
"601","564",8,9,95,"Modification5B","PosNegB_TOPCongruentV",44,1,369,"564"
"602","564",8,9,96,"Modification5B","PosNegB_BOTTOMCongruentV",44,1,455,"564"
"603","564",8,10,1,"Modification6B","PosNegB_TOPCongruentV",44,1,384,"564"
"604","564",8,10,2,"Modification6B","PosNegB_TOPCongruentH",50,1,366,"564"
"605","564",8,10,3,"Modification6B","PosNegB_BOTTOMCongruentV",44,1,365,"564"
"606","564",8,10,4,"Modification6B","PosNegB_BOTTOMCongruentV",44,1,572,"564"
"607","564",8,10,5,"Modification6B","PosNegB_BOTTOMCongruentH",50,1,419,"564"
"608","564",8,10,6,"Modification6B","PosNegB_TOPCongruentV",44,1,479,"564"
"609","564",8,10,7,"Modification6B","PosNegB_BOTTOMCongruentV",44,1,450,"564"
"610","564",8,10,8,"Modification6B","PosNegB_TOPCongruentV",44,1,429,"564"
"611","564",8,10,9,"Modification6B","PosNegB_TOPCongruentV",44,1,386,"564"
"612","564",8,10,10,"Modification6B","PosNegB_BOTTOMCongruentV",44,1,408,"564"
"613","564",8,10,11,"Modification6B","PosNegB_BOTTOMCongruentV",44,1,629,"564"
"614","564",8,10,12,"Modification6B","PosNegB_TOPCongruentH",50,1,554,"564"
"615","564",8,10,13,"Modification6B","PosNegB_TOPCongruentV",44,1,481,"564"
"616","564",8,10,14,"Modification6B","PosNegB_TOPCongruentH",50,1,428,"564"
"617","564",8,10,15,"Modification6B","PosNegB_BOTTOMCongruentV",44,1,409,"564"
"618","564",8,10,16,"Modification6B","PosNegB_TOPCongruentV",44,1,406,"564"
"619","564",8,10,17,"Modification6B","PosNegB_TOPCongruentV",44,1,395,"564"
"620","564",8,10,18,"Modification6B","PosNegB_BOTTOMCongruentV",44,1,337,"564"
"621","564",8,10,19,"Modification6B","PosNegB_TOPIncongruentV",44,1,441,"564"
"622","564",8,10,20,"Modification6B","PosNegB_BOTTOMCongruentH",50,1,341,"564"
"623","564",8,10,21,"Modification6B","PosNegB_BOTTOMCongruentH",50,1,605,"564"
"624","564",8,10,22,"Modification6B","PosNegB_TOPCongruentV",44,1,403,"564"
"625","564",8,10,23,"Modification6B","PosNegB_TOPCongruentH",50,1,368,"564"
"626","564",8,10,24,"Modification6B","PosNegB_TOPCongruentH",50,1,415,"564"
"627","564",8,10,25,"Modification6B","PosNegB_BOTTOMCongruentV",44,1,540,"564"
"628","564",8,10,26,"Modification6B","PosNegB_TOPCongruentV",44,1,412,"564"
"629","564",8,10,27,"Modification6B","PosNegB_BOTTOMCongruentV",44,1,385,"564"
"630","564",8,10,28,"Modification6B","PosNegB_BOTTOMIncongruentH",50,1,695,"564"
"631","564",8,10,29,"Modification6B","PosNegB_TOPCongruentV",50,0,513,"564"
"632","564",8,10,30,"Modification6B","PosNegB_BOTTOMCongruentH",50,1,491,"564"
"633","564",8,10,31,"Modification6B","PosNegB_BOTTOMCongruentV",44,1,365,"564"
"634","564",8,10,32,"Modification6B","PosNegB_TOPCongruentH",50,1,436,"564"
"635","564",8,10,33,"Modification6B","PosNegB_TOPCongruentV",44,1,352,"564"
"636","564",8,10,34,"Modification6B","PosNegB_BOTTOMIncongruentH",50,1,615,"564"
"637","564",8,10,35,"Modification6B","PosNegB_TOPIncongruentV",44,1,509,"564"
"638","564",8,10,36,"Modification6B","PosNegB_TOPCongruentV",44,1,486,"564"
"639","564",8,10,37,"Modification6B","PosNegB_BOTTOMCongruentH",50,1,400,"564"
"640","564",8,10,38,"Modification6B","PosNegB_TOPCongruentH",50,1,389,"564"
"641","564",8,10,39,"Modification6B","PosNegB_TOPCongruentH",50,1,435,"564"
"642","564",8,10,40,"Modification6B","PosNegB_BOTTOMCongruentH",50,1,575,"564"
"643","564",8,10,41,"Modification6B","PosNegB_TOPCongruentH",50,1,1790,"564"
"644","564",8,10,42,"Modification6B","PosNegB_BOTTOMCongruentH",50,1,620,"564"
"645","564",8,10,43,"Modification6B","PosNegB_BOTTOMCongruentH",50,1,673,"564"
"646","564",8,10,44,"Modification6B","PosNegB_TOPCongruentH",50,1,483,"564"
"647","564",8,10,45,"Modification6B","PosNegB_BOTTOMCongruentH",50,1,413,"564"
"648","564",8,10,46,"Modification6B","PosNegB_TOPCongruentV",44,1,387,"564"
"649","564",8,10,47,"Modification6B","PosNegB_TOPCongruentV",44,1,577,"564"
"650","564",8,10,48,"Modification6B","PosNegB_TOPCongruentH",50,1,343,"564"
"651","564",8,10,49,"Modification6B","PosNegB_BOTTOMCongruentV",44,1,423,"564"
"652","564",8,10,50,"Modification6B","PosNegB_BOTTOMCongruentV",44,1,412,"564"
"653","564",8,10,51,"Modification6B","PosNegB_BOTTOMCongruentH",50,1,353,"564"
"654","564",8,10,52,"Modification6B","PosNegB_BOTTOMCongruentH",50,1,481,"564"
"655","564",8,10,53,"Modification6B","PosNegB_BOTTOMCongruentH",50,1,475,"564"
"656","564",8,10,54,"Modification6B","PosNegB_BOTTOMCongruentV",44,1,438,"564"
"657","564",8,10,55,"Modification6B","PosNegB_BOTTOMCongruentH",50,1,394,"564"
"658","564",8,10,56,"Modification6B","PosNegB_BOTTOMCongruentV",44,1,560,"564"
"659","564",8,10,57,"Modification6B","PosNegB_BOTTOMCongruentV",44,1,447,"564"
"660","564",8,10,58,"Modification6B","PosNegB_BOTTOMIncongruentV",44,1,1435,"564"
"661","564",8,10,59,"Modification6B","PosNegB_TOPCongruentV",44,1,495,"564"
"662","564",8,10,60,"Modification6B","PosNegB_TOPCongruentH",50,1,449,"564"
"663","564",8,10,61,"Modification6B","PosNegB_TOPCongruentV",44,1,525,"564"
"664","564",8,10,62,"Modification6B","PosNegB_TOPIncongruentH",50,1,429,"564"
"665","564",8,10,63,"Modification6B","PosNegB_TOPCongruentH",50,1,434,"564"
"666","564",8,10,64,"Modification6B","PosNegB_TOPCongruentV",44,1,486,"564"
"667","564",8,10,65,"Modification6B","PosNegB_TOPCongruentH",50,1,368,"564"
"668","564",8,10,66,"Modification6B","PosNegB_BOTTOMIncongruentV",44,1,871,"564"
"669","564",8,10,67,"Modification6B","PosNegB_BOTTOMCongruentH",50,1,481,"564"
"670","564",8,10,68,"Modification6B","PosNegB_TOPCongruentV",44,1,372,"564"
"671","564",8,10,69,"Modification6B","PosNegB_BOTTOMCongruentH",50,1,371,"564"
"672","564",8,10,70,"Modification6B","PosNegB_TOPCongruentH",50,1,385,"564"
"673","564",8,10,71,"Modification6B","PosNegB_TOPIncongruentH",50,1,391,"564"
"674","564",8,10,72,"Modification6B","PosNegB_TOPCongruentH",50,1,429,"564"
"675","564",8,10,73,"Modification6B","PosNegB_TOPCongruentV",50,0,354,"564"
"676","564",8,10,74,"Modification6B","PosNegB_TOPCongruentV",44,1,457,"564"
"677","564",8,10,75,"Modification6B","PosNegB_BOTTOMCongruentV",44,1,453,"564"
"678","564",8,10,76,"Modification6B","PosNegB_BOTTOMCongruentH",50,1,512,"564"
"679","564",8,10,77,"Modification6B","PosNegB_BOTTOMCongruentH",50,1,393,"564"
"680","564",8,10,78,"Modification6B","PosNegB_BOTTOMCongruentV",44,1,448,"564"
"681","564",8,10,79,"Modification6B","PosNegB_BOTTOMCongruentH",50,1,395,"564"
"682","564",8,10,80,"Modification6B","PosNegB_TOPCongruentH",50,1,361,"564"
"683","564",8,10,81,"Modification6B","PosNegB_BOTTOMCongruentH",50,1,345,"564"
"684","564",8,10,82,"Modification6B","PosNegB_BOTTOMCongruentV",44,1,393,"564"
"685","564",8,10,83,"Modification6B","PosNegB_BOTTOMCongruentH",50,1,359,"564"
"686","564",8,10,84,"Modification6B","PosNegB_TOPCongruentH",50,1,414,"564"
"687","564",8,10,85,"Modification6B","PosNegB_BOTTOMCongruentV",44,1,427,"564"
"688","564",8,10,86,"Modification6B","PosNegB_BOTTOMCongruentH",50,1,336,"564"
"689","564",8,10,87,"Modification6B","PosNegB_BOTTOMCongruentH",50,1,416,"564"
"690","564",8,10,88,"Modification6B","PosNegB_BOTTOMCongruentV",44,1,533,"564"
"691","564",8,10,89,"Modification6B","PosNegB_BOTTOMCongruentV",44,1,429,"564"
"692","564",8,10,90,"Modification6B","PosNegB_TOPCongruentV",44,1,417,"564"
"693","564",8,10,91,"Modification6B","PosNegB_TOPCongruentH",50,1,398,"564"
"694","564",8,10,92,"Modification6B","PosNegB_TOPCongruentV",44,1,420,"564"
"695","564",8,10,93,"Modification6B","PosNegB_TOPCongruentH",50,1,481,"564"
"696","564",8,10,94,"Modification6B","PosNegB_TOPCongruentH",50,1,483,"564"
"697","564",8,10,95,"Modification6B","PosNegB_BOTTOMCongruentV",44,1,445,"564"
"698","564",8,10,96,"Modification6B","PosNegB_TOPCongruentH",50,1,369,"564"
"699","564",8,11,1,"Assessment2A","PosNegA_BOTTOMIncongruentH",50,1,541,"564"
"700","564",8,11,2,"Assessment2A","PosNegA_BOTTOMCongruentH",50,1,405,"564"
"701","564",8,11,3,"Assessment2A","PosNegA_TOPIncongruentV",44,1,443,"564"
"702","564",8,11,4,"Assessment2A","PosNegA_TOPIncongruentH",50,1,351,"564"
"703","564",8,11,5,"Assessment2A","PosNegA_BOTTOMIncongruentV",44,1,598,"564"
"704","564",8,11,6,"Assessment2A","PosNegA_TOPCongruentV",44,1,524,"564"
"705","564",8,11,7,"Assessment2A","PosNegA_TOPCongruentH",50,1,533,"564"
"706","564",8,11,8,"Assessment2A","PosNegA_BOTTOMCongruentV",44,1,781,"564"
"707","564",8,11,9,"Assessment2A","PosNegA_BOTTOMCongruentV",44,1,651,"564"
"708","564",8,11,10,"Assessment2A","PosNegA_TOPIncongruentV",44,1,463,"564"
"709","564",8,11,11,"Assessment2A","PosNegA_BOTTOMIncongruentH",50,1,738,"564"
"710","564",8,11,12,"Assessment2A","PosNegA_BOTTOMIncongruentV",44,1,626,"564"
"711","564",8,11,13,"Assessment2A","PosNegA_BOTTOMCongruentH",50,1,799,"564"
"712","564",8,11,14,"Assessment2A","PosNegA_BOTTOMCongruentV",44,1,741,"564"
"713","564",8,11,15,"Assessment2A","PosNegA_BOTTOMCongruentH",50,1,389,"564"
"714","564",8,11,16,"Assessment2A","PosNegA_TOPIncongruentV",44,1,539,"564"
"715","564",8,11,17,"Assessment2A","PosNegA_BOTTOMIncongruentV",44,1,835,"564"
"716","564",8,11,18,"Assessment2A","PosNegA_BOTTOMCongruentH",50,1,479,"564"
"717","564",8,11,19,"Assessment2A","PosNegA_TOPCongruentH",50,1,409,"564"
"718","564",8,11,20,"Assessment2A","PosNegA_BOTTOMCongruentV",44,1,415,"564"
"719","564",8,11,21,"Assessment2A","PosNegA_BOTTOMIncongruentH",50,1,516,"564"
"720","564",8,11,22,"Assessment2A","PosNegA_BOTTOMCongruentH",50,1,461,"564"
"721","564",8,11,23,"Assessment2A","PosNegA_TOPIncongruentV",44,1,528,"564"
"722","564",8,11,24,"Assessment2A","PosNegA_TOPIncongruentH",50,1,409,"564"
"723","564",8,11,25,"Assessment2A","PosNegA_BOTTOMIncongruentV",44,1,838,"564"
"724","564",8,11,26,"Assessment2A","PosNegA_TOPIncongruentH",50,1,1018,"564"
"725","564",8,11,27,"Assessment2A","PosNegA_TOPCongruentV",44,1,1095,"564"
"726","564",8,11,28,"Assessment2A","PosNegA_BOTTOMCongruentV",44,1,593,"564"
"727","564",8,11,29,"Assessment2A","PosNegA_TOPCongruentV",50,0,335,"564"
"728","564",8,11,30,"Assessment2A","PosNegA_BOTTOMIncongruentV",44,1,735,"564"
"729","564",8,11,31,"Assessment2A","PosNegA_TOPIncongruentV",44,1,471,"564"
"730","564",8,11,32,"Assessment2A","PosNegA_BOTTOMIncongruentH",50,1,633,"564"
"731","564",8,11,33,"Assessment2A","PosNegA_BOTTOMCongruentH",50,1,381,"564"
"732","564",8,11,34,"Assessment2A","PosNegA_BOTTOMIncongruentH",50,1,772,"564"
"733","564",8,11,35,"Assessment2A","PosNegA_BOTTOMIncongruentV",44,1,987,"564"
"734","564",8,11,36,"Assessment2A","PosNegA_TOPCongruentV",44,1,481,"564"
"735","564",8,11,37,"Assessment2A","PosNegA_TOPCongruentH",50,1,547,"564"
"736","564",8,11,38,"Assessment2A","PosNegA_BOTTOMIncongruentH",50,1,931,"564"
"737","564",8,11,39,"Assessment2A","PosNegA_BOTTOMCongruentV",44,1,388,"564"
"738","564",8,11,40,"Assessment2A","PosNegA_TOPIncongruentH",50,1,362,"564"
"739","564",8,11,41,"Assessment2A","PosNegA_BOTTOMIncongruentV",44,1,905,"564"
"740","564",8,11,42,"Assessment2A","PosNegA_BOTTOMCongruentV",44,1,435,"564"
"741","564",8,11,43,"Assessment2A","PosNegA_BOTTOMCongruentH",50,1,359,"564"
"742","564",8,11,44,"Assessment2A","PosNegA_BOTTOMCongruentV",44,1,382,"564"
"743","564",8,11,45,"Assessment2A","PosNegA_TOPIncongruentH",50,1,485,"564"
"744","564",8,11,46,"Assessment2A","PosNegA_BOTTOMCongruentV",44,1,415,"564"
"745","564",8,11,47,"Assessment2A","PosNegA_TOPCongruentH",50,1,356,"564"
"746","564",8,11,48,"Assessment2A","PosNegA_TOPIncongruentH",50,1,355,"564"
"747","564",8,11,49,"Assessment2A","PosNegA_BOTTOMIncongruentH",50,1,875,"564"
"748","564",8,11,50,"Assessment2A","PosNegA_TOPCongruentV",44,1,477,"564"
"749","564",8,11,51,"Assessment2A","PosNegA_TOPIncongruentH",50,1,344,"564"
"750","564",8,11,52,"Assessment2A","PosNegA_BOTTOMIncongruentH",50,1,904,"564"
"751","564",8,11,53,"Assessment2A","PosNegA_TOPCongruentH",50,1,465,"564"
"752","564",8,11,54,"Assessment2A","PosNegA_BOTTOMIncongruentH",50,1,557,"564"
"753","564",8,11,55,"Assessment2A","PosNegA_TOPCongruentH",50,1,476,"564"
"754","564",8,11,56,"Assessment2A","PosNegA_BOTTOMIncongruentV",44,1,1023,"564"
"755","564",8,11,57,"Assessment2A","PosNegA_BOTTOMIncongruentH",50,1,923,"564"
"756","564",8,11,58,"Assessment2A","PosNegA_BOTTOMCongruentH",50,1,548,"564"
"757","564",8,11,59,"Assessment2A","PosNegA_BOTTOMIncongruentV",44,1,964,"564"
"758","564",8,11,60,"Assessment2A","PosNegA_TOPCongruentH",50,1,675,"564"
"759","564",8,11,61,"Assessment2A","PosNegA_BOTTOMCongruentH",44,0,422,"564"
"760","564",8,11,62,"Assessment2A","PosNegA_TOPIncongruentV",44,1,427,"564"
"761","564",8,11,63,"Assessment2A","PosNegA_BOTTOMIncongruentV",44,1,711,"564"
"762","564",8,11,64,"Assessment2A","PosNegA_TOPIncongruentV",44,1,409,"564"
"763","564",8,11,65,"Assessment2A","PosNegA_TOPCongruentV",44,1,390,"564"
"764","564",8,11,66,"Assessment2A","PosNegA_BOTTOMCongruentH",50,1,452,"564"
"765","564",8,11,67,"Assessment2A","PosNegA_BOTTOMCongruentV",44,1,687,"564"
"766","564",8,11,68,"Assessment2A","PosNegA_TOPIncongruentH",50,1,353,"564"
"767","564",8,11,69,"Assessment2A","PosNegA_TOPCongruentH",50,1,329,"564"
"768","564",8,11,70,"Assessment2A","PosNegA_TOPIncongruentH",50,1,577,"564"
"769","564",8,11,71,"Assessment2A","PosNegA_TOPCongruentV",44,1,496,"564"
"770","564",8,11,72,"Assessment2A","PosNegA_TOPCongruentH",50,1,450,"564"
"771","564",8,11,73,"Assessment2A","PosNegA_TOPCongruentV",44,1,357,"564"
"772","564",8,11,74,"Assessment2A","PosNegA_BOTTOMCongruentV",44,1,477,"564"
"773","564",8,11,75,"Assessment2A","PosNegA_TOPCongruentH",50,1,367,"564"
"774","564",8,11,76,"Assessment2A","PosNegA_BOTTOMCongruentV",44,1,350,"564"
"775","564",8,11,77,"Assessment2A","PosNegA_TOPIncongruentV",44,1,389,"564"
"776","564",8,11,78,"Assessment2A","PosNegA_TOPIncongruentH",50,1,371,"564"
"777","564",8,11,79,"Assessment2A","PosNegA_TOPIncongruentV",44,1,394,"564"
"778","564",8,11,80,"Assessment2A","PosNegA_BOTTOMIncongruentV",44,1,856,"564"
"779","564",8,11,81,"Assessment2A","PosNegA_TOPCongruentV",44,1,435,"564"
"780","564",8,11,82,"Assessment2A","PosNegA_BOTTOMIncongruentH",50,1,615,"564"
"781","564",8,11,83,"Assessment2A","PosNegA_BOTTOMCongruentH",50,1,461,"564"
"782","564",8,11,84,"Assessment2A","PosNegA_TOPCongruentH",50,1,384,"564"
"783","564",8,11,85,"Assessment2A","PosNegA_BOTTOMIncongruentH",50,1,614,"564"
"784","564",8,11,86,"Assessment2A","PosNegA_TOPCongruentH",50,1,843,"564"
"785","564",8,11,87,"Assessment2A","PosNegA_BOTTOMIncongruentH",50,1,759,"564"
"786","564",8,11,88,"Assessment2A","PosNegA_BOTTOMIncongruentV",44,1,887,"564"
"787","564",8,11,89,"Assessment2A","PosNegA_TOPIncongruentV",44,1,417,"564"
"788","564",8,11,90,"Assessment2A","PosNegA_TOPIncongruentH",50,1,397,"564"
"789","564",8,11,91,"Assessment2A","PosNegA_TOPCongruentV",44,1,507,"564"
"790","564",8,11,92,"Assessment2A","PosNegA_BOTTOMIncongruentV",44,1,693,"564"
"791","564",8,11,93,"Assessment2A","PosNegA_TOPIncongruentV",44,1,807,"564"
"792","564",8,11,94,"Assessment2A","PosNegA_TOPCongruentH",50,1,396,"564"
"793","564",8,11,95,"Assessment2A","PosNegA_TOPCongruentV",44,1,450,"564"
"794","564",8,11,96,"Assessment2A","PosNegA_TOPIncongruentV",44,1,469,"564"
"795","564",8,11,97,"Assessment2A","PosNegA_TOPCongruentV",44,1,480,"564"
"796","564",8,11,98,"Assessment2A","PosNegA_BOTTOMCongruentH",50,1,387,"564"
"797","564",8,11,99,"Assessment2A","PosNegA_TOPCongruentV",44,1,609,"564"
"798","564",8,11,100,"Assessment2A","PosNegA_TOPIncongruentH",50,1,382,"564"
"799","564",8,11,101,"Assessment2A","PosNegA_BOTTOMCongruentH",50,1,549,"564"
"800","564",8,11,102,"Assessment2A","PosNegA_BOTTOMCongruentV",44,1,645,"564"
"801","564",8,11,103,"Assessment2A","PosNegA_TOPIncongruentV",44,1,369,"564"
"802","564",8,11,104,"Assessment2A","PosNegA_TOPIncongruentH",50,1,327,"564"
"803","603",9,1,1,"participant","participant",603,0,7142,"603"
"804","603",9,2,1,"Practice","PrePractice_TOPV",44,1,905,"603"
"805","603",9,2,2,"Practice","PrePractice_TOPV",44,1,550,"603"
"806","603",9,2,3,"Practice","PrePractice_BOTTOMV",44,1,585,"603"
"807","603",9,2,4,"Practice","PrePractice_TOPV",44,1,404,"603"
"808","603",9,2,5,"Practice","PrePractice_BOTTOMH",50,1,845,"603"
"809","603",9,2,6,"Practice","PrePractice_TOPV",44,1,461,"603"
"810","603",9,2,7,"Practice","PrePractice_TOPV",50,0,388,"603"
"811","603",9,2,8,"Practice","PrePractice_TOPV",44,1,334,"603"
"812","603",9,2,9,"Practice","PrePractice_BOTTOMH",50,1,930,"603"
"813","603",9,2,10,"Practice","PrePractice_TOPV",44,1,399,"603"
"814","603",9,2,11,"Practice","PrePractice_BOTTOMV",44,1,649,"603"
"815","603",9,2,12,"Practice","PrePractice_BOTTOMH",50,1,713,"603"
"816","603",9,2,13,"Practice","PrePractice_BOTTOMV",44,1,758,"603"
"817","603",9,2,14,"Practice","PrePractice_BOTTOMH",50,1,657,"603"
"818","603",9,2,15,"Practice","PrePractice_TOPV",44,1,593,"603"
"819","603",9,2,16,"Practice","PrePractice_BOTTOMV",44,1,739,"603"
"820","603",9,3,1,"Assessment1B","PosNegB_TOPIncongruentV",44,1,561,"603"
"821","603",9,3,2,"Assessment1B","PosNegB_BOTTOMCongruentH",50,1,929,"603"
"822","603",9,3,3,"Assessment1B","PosNegB_BOTTOMCongruentV",44,1,793,"603"
"823","603",9,3,4,"Assessment1B","PosNegB_TOPCongruentV",44,1,607,"603"
"824","603",9,3,5,"Assessment1B","PosNegB_BOTTOMIncongruentH",44,0,549,"603"
"825","603",9,3,6,"Assessment1B","PosNegB_TOPIncongruentH",50,1,757,"603"
"826","603",9,3,7,"Assessment1B","PosNegB_TOPCongruentH",50,1,452,"603"
"827","603",9,3,8,"Assessment1B","PosNegB_BOTTOMIncongruentV",44,1,735,"603"
"828","603",9,3,9,"Assessment1B","PosNegB_TOPIncongruentH",50,1,711,"603"
"829","603",9,3,10,"Assessment1B","PosNegB_BOTTOMCongruentH",50,1,697,"603"
"830","603",9,3,11,"Assessment1B","PosNegB_BOTTOMIncongruentV",44,1,595,"603"
"831","603",9,3,12,"Assessment1B","PosNegB_TOPCongruentV",44,1,537,"603"
"832","603",9,3,13,"Assessment1B","PosNegB_BOTTOMIncongruentH",50,1,649,"603"
"833","603",9,3,14,"Assessment1B","PosNegB_BOTTOMCongruentH",50,1,772,"603"
"834","603",9,3,15,"Assessment1B","PosNegB_BOTTOMIncongruentH",50,1,667,"603"
"835","603",9,3,16,"Assessment1B","PosNegB_TOPCongruentV",44,1,533,"603"
"836","603",9,3,17,"Assessment1B","PosNegB_TOPIncongruentV",44,1,566,"603"
"837","603",9,3,18,"Assessment1B","PosNegB_TOPCongruentV",44,1,572,"603"
"838","603",9,3,19,"Assessment1B","PosNegB_BOTTOMCongruentH",50,1,587,"603"
"839","603",9,3,20,"Assessment1B","PosNegB_BOTTOMCongruentV",50,0,737,"603"
"840","603",9,3,21,"Assessment1B","PosNegB_TOPCongruentH",50,1,737,"603"
"841","603",9,3,22,"Assessment1B","PosNegB_TOPCongruentV",44,1,425,"603"
"842","603",9,3,23,"Assessment1B","PosNegB_BOTTOMCongruentV",44,1,829,"603"
"843","603",9,3,24,"Assessment1B","PosNegB_BOTTOMCongruentH",50,1,666,"603"
"844","603",9,3,25,"Assessment1B","PosNegB_TOPCongruentH",50,1,653,"603"
"845","603",9,3,26,"Assessment1B","PosNegB_BOTTOMCongruentH",50,1,432,"603"
"846","603",9,3,27,"Assessment1B","PosNegB_BOTTOMCongruentV",44,1,741,"603"
"847","603",9,3,28,"Assessment1B","PosNegB_TOPIncongruentH",50,1,573,"603"
"848","603",9,3,29,"Assessment1B","PosNegB_TOPIncongruentV",44,1,603,"603"
"849","603",9,3,30,"Assessment1B","PosNegB_BOTTOMIncongruentH",50,1,545,"603"
"850","603",9,3,31,"Assessment1B","PosNegB_TOPCongruentH",50,1,601,"603"
"851","603",9,3,32,"Assessment1B","PosNegB_BOTTOMCongruentH",50,1,630,"603"
"852","603",9,3,33,"Assessment1B","PosNegB_TOPIncongruentV",44,1,539,"603"
"853","603",9,3,34,"Assessment1B","PosNegB_BOTTOMCongruentV",44,1,595,"603"
"854","603",9,3,35,"Assessment1B","PosNegB_TOPCongruentH",50,1,793,"603"
"855","603",9,3,36,"Assessment1B","PosNegB_TOPIncongruentH",50,1,623,"603"
"856","603",9,3,37,"Assessment1B","PosNegB_BOTTOMIncongruentH",50,1,451,"603"
"857","603",9,3,38,"Assessment1B","PosNegB_BOTTOMIncongruentV",44,1,551,"603"
"858","603",9,3,39,"Assessment1B","PosNegB_BOTTOMCongruentV",44,1,662,"603"
"859","603",9,3,40,"Assessment1B","PosNegB_BOTTOMCongruentH",50,1,593,"603"
"860","603",9,3,41,"Assessment1B","PosNegB_BOTTOMCongruentV",44,1,927,"603"
"861","603",9,3,42,"Assessment1B","PosNegB_BOTTOMCongruentH",50,1,704,"603"
"862","603",9,3,43,"Assessment1B","PosNegB_BOTTOMIncongruentH",50,1,905,"603"
"863","603",9,3,44,"Assessment1B","PosNegB_TOPCongruentH",50,1,611,"603"
"864","603",9,3,45,"Assessment1B","PosNegB_BOTTOMIncongruentH",50,1,688,"603"
"865","603",9,3,46,"Assessment1B","PosNegB_TOPCongruentH",50,1,554,"603"
"866","603",9,3,47,"Assessment1B","PosNegB_TOPCongruentV",44,1,417,"603"
"867","603",9,3,48,"Assessment1B","PosNegB_TOPCongruentH",50,1,942,"603"
"868","603",9,3,49,"Assessment1B","PosNegB_BOTTOMCongruentV",44,1,846,"603"
"869","603",9,3,50,"Assessment1B","PosNegB_TOPIncongruentV",44,1,562,"603"
"870","603",9,3,51,"Assessment1B","PosNegB_BOTTOMIncongruentV",44,1,497,"603"
"871","603",9,3,52,"Assessment1B","PosNegB_TOPIncongruentH",50,1,595,"603"
"872","603",9,3,53,"Assessment1B","PosNegB_BOTTOMIncongruentH",50,1,810,"603"
"873","603",9,3,54,"Assessment1B","PosNegB_TOPCongruentH",50,1,583,"603"
"874","603",9,3,55,"Assessment1B","PosNegB_TOPCongruentV",44,1,589,"603"
"875","603",9,3,56,"Assessment1B","PosNegB_BOTTOMIncongruentV",44,1,483,"603"
"876","603",9,3,57,"Assessment1B","PosNegB_TOPIncongruentH",50,1,469,"603"
"877","603",9,3,58,"Assessment1B","PosNegB_BOTTOMIncongruentV",44,1,551,"603"
"878","603",9,3,59,"Assessment1B","PosNegB_TOPCongruentV",44,1,647,"603"
"879","603",9,3,60,"Assessment1B","PosNegB_TOPCongruentH",50,1,579,"603"
"880","603",9,3,61,"Assessment1B","PosNegB_BOTTOMIncongruentV",44,1,490,"603"
"881","603",9,3,62,"Assessment1B","PosNegB_TOPIncongruentV",44,1,507,"603"
"882","603",9,3,63,"Assessment1B","PosNegB_BOTTOMIncongruentH",50,1,629,"603"
"883","603",9,3,64,"Assessment1B","PosNegB_BOTTOMCongruentH",50,1,690,"603"
"884","603",9,3,65,"Assessment1B","PosNegB_TOPCongruentV",44,1,603,"603"
"885","603",9,3,66,"Assessment1B","PosNegB_BOTTOMCongruentV",44,1,1057,"603"
"886","603",9,3,67,"Assessment1B","PosNegB_TOPIncongruentV",44,1,612,"603"
"887","603",9,3,68,"Assessment1B","PosNegB_BOTTOMCongruentV",44,1,537,"603"
"888","603",9,3,69,"Assessment1B","PosNegB_TOPCongruentV",44,1,537,"603"
"889","603",9,3,70,"Assessment1B","PosNegB_TOPIncongruentV",44,1,433,"603"
"890","603",9,3,71,"Assessment1B","PosNegB_TOPIncongruentH",50,1,582,"603"
"891","603",9,3,72,"Assessment1B","PosNegB_BOTTOMIncongruentV",44,1,420,"603"
"892","603",9,3,73,"Assessment1B","PosNegB_TOPCongruentV",44,1,337,"603"
"893","603",9,3,74,"Assessment1B","PosNegB_BOTTOMCongruentH",50,1,929,"603"
"894","603",9,3,75,"Assessment1B","PosNegB_BOTTOMIncongruentV",44,1,434,"603"
"895","603",9,3,76,"Assessment1B","PosNegB_TOPCongruentV",44,1,437,"603"
"896","603",9,3,77,"Assessment1B","PosNegB_TOPIncongruentV",44,1,425,"603"
"897","603",9,3,78,"Assessment1B","PosNegB_BOTTOMCongruentH",50,1,974,"603"
"898","603",9,3,79,"Assessment1B","PosNegB_TOPIncongruentV",44,1,365,"603"
"899","603",9,3,80,"Assessment1B","PosNegB_TOPIncongruentH",50,1,588,"603"
"900","603",9,3,81,"Assessment1B","PosNegB_BOTTOMIncongruentV",44,1,394,"603"
"901","603",9,3,82,"Assessment1B","PosNegB_TOPIncongruentV",44,1,392,"603"
"902","603",9,3,83,"Assessment1B","PosNegB_TOPIncongruentH",50,1,334,"603"
"903","603",9,3,84,"Assessment1B","PosNegB_BOTTOMIncongruentV",44,1,390,"603"
"904","603",9,3,85,"Assessment1B","PosNegB_BOTTOMCongruentV",44,1,716,"603"
"905","603",9,3,86,"Assessment1B","PosNegB_TOPIncongruentH",50,1,413,"603"
"906","603",9,3,87,"Assessment1B","PosNegB_BOTTOMIncongruentH",44,0,314,"603"
"907","603",9,3,88,"Assessment1B","PosNegB_BOTTOMCongruentV",44,1,771,"603"
"908","603",9,3,89,"Assessment1B","PosNegB_TOPIncongruentV",44,1,506,"603"
"909","603",9,3,90,"Assessment1B","PosNegB_BOTTOMIncongruentV",44,1,355,"603"
"910","603",9,3,91,"Assessment1B","PosNegB_TOPIncongruentH",50,1,467,"603"
"911","603",9,3,92,"Assessment1B","PosNegB_BOTTOMIncongruentH",50,1,421,"603"
"912","603",9,3,93,"Assessment1B","PosNegB_TOPCongruentH",50,1,402,"603"
"913","603",9,3,94,"Assessment1B","PosNegB_TOPIncongruentV",44,1,471,"603"
"914","603",9,3,95,"Assessment1B","PosNegB_BOTTOMIncongruentV",44,1,794,"603"
"915","603",9,3,96,"Assessment1B","PosNegB_BOTTOMCongruentV",44,1,768,"603"
"916","603",9,3,97,"Assessment1B","PosNegB_TOPCongruentH",50,1,615,"603"
"917","603",9,3,98,"Assessment1B","PosNegB_BOTTOMIncongruentH",50,1,692,"603"
"918","603",9,3,99,"Assessment1B","PosNegB_BOTTOMCongruentH",50,1,678,"603"
"919","603",9,3,100,"Assessment1B","PosNegB_TOPIncongruentH",50,1,441,"603"
"920","603",9,3,101,"Assessment1B","PosNegB_TOPCongruentV",44,1,493,"603"
"921","603",9,3,102,"Assessment1B","PosNegB_TOPCongruentH",50,1,615,"603"
"922","603",9,3,103,"Assessment1B","PosNegB_TOPIncongruentH",50,1,524,"603"
"923","603",9,3,104,"Assessment1B","PosNegB_BOTTOMIncongruentH",50,1,421,"603"
"924","603",9,4,1,"Modification1B","PosNegB_BOTTOMIncongruentV",44,1,431,"603"
"925","603",9,4,2,"Modification1B","PosNegB_BOTTOMCongruentH",50,1,547,"603"
"926","603",9,4,3,"Modification1B","PosNegB_BOTTOMCongruentV",44,1,900,"603"
"927","603",9,4,4,"Modification1B","PosNegB_TOPCongruentH",50,1,381,"603"
"928","603",9,4,5,"Modification1B","PosNegB_TOPCongruentH",50,1,499,"603"
"929","603",9,4,6,"Modification1B","PosNegB_TOPCongruentH",50,1,365,"603"
"930","603",9,4,7,"Modification1B","PosNegB_BOTTOMCongruentV",44,1,724,"603"
"931","603",9,4,8,"Modification1B","PosNegB_TOPCongruentV",44,1,613,"603"
"932","603",9,4,9,"Modification1B","PosNegB_BOTTOMCongruentV",44,1,818,"603"
"933","603",9,4,10,"Modification1B","PosNegB_BOTTOMCongruentH",50,1,703,"603"
"934","603",9,4,11,"Modification1B","PosNegB_TOPCongruentH",50,1,752,"603"
"935","603",9,4,12,"Modification1B","PosNegB_TOPCongruentH",50,1,631,"603"
"936","603",9,4,13,"Modification1B","PosNegB_BOTTOMCongruentH",50,1,780,"603"
"937","603",9,4,14,"Modification1B","PosNegB_TOPCongruentV",44,1,499,"603"
"938","603",9,4,15,"Modification1B","PosNegB_TOPCongruentH",50,1,597,"603"
"939","603",9,4,16,"Modification1B","PosNegB_TOPCongruentH",50,1,571,"603"
"940","603",9,4,17,"Modification1B","PosNegB_BOTTOMCongruentV",44,1,681,"603"
"941","603",9,4,18,"Modification1B","PosNegB_BOTTOMCongruentH",50,1,796,"603"
"942","603",9,4,19,"Modification1B","PosNegB_BOTTOMCongruentH",50,1,826,"603"
"943","603",9,4,20,"Modification1B","PosNegB_TOPCongruentH",50,1,671,"603"
"944","603",9,4,21,"Modification1B","PosNegB_TOPCongruentH",50,1,377,"603"
"945","603",9,4,22,"Modification1B","PosNegB_BOTTOMCongruentH",50,1,480,"603"
"946","603",9,4,23,"Modification1B","PosNegB_BOTTOMCongruentH",50,1,339,"603"
"947","603",9,4,24,"Modification1B","PosNegB_TOPIncongruentV",44,1,451,"603"
"948","603",9,4,25,"Modification1B","PosNegB_TOPCongruentV",44,1,414,"603"
"949","603",9,4,26,"Modification1B","PosNegB_BOTTOMCongruentH",50,1,284,"603"
"950","603",9,4,27,"Modification1B","PosNegB_TOPCongruentH",44,0,357,"603"
"951","603",9,4,28,"Modification1B","PosNegB_BOTTOMCongruentH",50,1,645,"603"
"952","603",9,4,29,"Modification1B","PosNegB_BOTTOMCongruentV",44,1,537,"603"
"953","603",9,4,30,"Modification1B","PosNegB_BOTTOMCongruentV",44,1,473,"603"
"954","603",9,4,31,"Modification1B","PosNegB_TOPCongruentV",44,1,491,"603"
"955","603",9,4,32,"Modification1B","PosNegB_TOPCongruentV",44,1,557,"603"
"956","603",9,4,33,"Modification1B","PosNegB_BOTTOMCongruentV",44,1,549,"603"
"957","603",9,4,34,"Modification1B","PosNegB_TOPCongruentH",50,1,452,"603"
"958","603",9,4,35,"Modification1B","PosNegB_TOPCongruentV",44,1,472,"603"
"959","603",9,4,36,"Modification1B","PosNegB_BOTTOMCongruentV",44,1,482,"603"
"960","603",9,4,37,"Modification1B","PosNegB_TOPCongruentV",44,1,564,"603"
"961","603",9,4,38,"Modification1B","PosNegB_TOPCongruentH",44,0,436,"603"
"962","603",9,4,39,"Modification1B","PosNegB_TOPCongruentH",50,1,503,"603"
"963","603",9,4,40,"Modification1B","PosNegB_BOTTOMCongruentH",50,1,465,"603"
"964","603",9,4,41,"Modification1B","PosNegB_TOPCongruentV",44,1,484,"603"
"965","603",9,4,42,"Modification1B","PosNegB_BOTTOMCongruentV",44,1,550,"603"
"966","603",9,4,43,"Modification1B","PosNegB_TOPCongruentH",50,1,405,"603"
"967","603",9,4,44,"Modification1B","PosNegB_BOTTOMCongruentV",44,1,499,"603"
"968","603",9,4,45,"Modification1B","PosNegB_BOTTOMCongruentV",44,1,717,"603"
"969","603",9,4,46,"Modification1B","PosNegB_BOTTOMCongruentH",50,1,349,"603"
"970","603",9,4,47,"Modification1B","PosNegB_BOTTOMCongruentV",44,1,445,"603"
"971","603",9,4,48,"Modification1B","PosNegB_TOPCongruentV",44,1,361,"603"
"972","603",9,4,49,"Modification1B","PosNegB_BOTTOMCongruentH",50,1,424,"603"
"973","603",9,4,50,"Modification1B","PosNegB_TOPCongruentV",44,1,333,"603"
"974","603",9,4,51,"Modification1B","PosNegB_BOTTOMCongruentH",50,1,293,"603"
"975","603",9,4,52,"Modification1B","PosNegB_TOPCongruentV",44,1,567,"603"
"976","603",9,4,53,"Modification1B","PosNegB_BOTTOMCongruentV",44,1,438,"603"
"977","603",9,4,54,"Modification1B","PosNegB_BOTTOMCongruentV",44,1,433,"603"
"978","603",9,4,55,"Modification1B","PosNegB_TOPCongruentH",50,1,365,"603"
"979","603",9,4,56,"Modification1B","PosNegB_BOTTOMCongruentV",44,1,389,"603"
"980","603",9,4,57,"Modification1B","PosNegB_BOTTOMCongruentH",50,1,411,"603"
"981","603",9,4,58,"Modification1B","PosNegB_TOPCongruentH",44,0,336,"603"
"982","603",9,4,59,"Modification1B","PosNegB_TOPCongruentV",44,1,472,"603"
"983","603",9,4,60,"Modification1B","PosNegB_TOPCongruentH",50,1,339,"603"
"984","603",9,4,61,"Modification1B","PosNegB_BOTTOMCongruentH",50,1,411,"603"
"985","603",9,4,62,"Modification1B","PosNegB_TOPCongruentH",50,1,376,"603"
"986","603",9,4,63,"Modification1B","PosNegB_BOTTOMCongruentV",44,1,439,"603"
"987","603",9,4,64,"Modification1B","PosNegB_TOPCongruentV",50,0,539,"603"
"988","603",9,4,65,"Modification1B","PosNegB_BOTTOMIncongruentH",50,1,1043,"603"
"989","603",9,4,66,"Modification1B","PosNegB_TOPCongruentV",44,1,831,"603"
"990","603",9,4,67,"Modification1B","PosNegB_TOPCongruentH",50,1,459,"603"
"991","603",9,4,68,"Modification1B","PosNegB_BOTTOMCongruentV",44,1,479,"603"
"992","603",9,4,69,"Modification1B","PosNegB_TOPIncongruentV",44,1,465,"603"
"993","603",9,4,70,"Modification1B","PosNegB_BOTTOMCongruentH",50,1,356,"603"
"994","603",9,4,71,"Modification1B","PosNegB_BOTTOMIncongruentH",50,1,1435,"603"
"995","603",9,4,72,"Modification1B","PosNegB_BOTTOMCongruentH",50,1,735,"603"
"996","603",9,4,73,"Modification1B","PosNegB_TOPCongruentH",50,1,407,"603"
"997","603",9,4,74,"Modification1B","PosNegB_TOPCongruentV",44,1,621,"603"
"998","603",9,4,75,"Modification1B","PosNegB_BOTTOMCongruentV",44,1,537,"603"
"999","603",9,4,76,"Modification1B","PosNegB_TOPIncongruentH",50,1,609,"603"
"1000","603",9,4,77,"Modification1B","PosNegB_TOPCongruentV",44,1,503,"603"
"1001","603",9,4,78,"Modification1B","PosNegB_BOTTOMCongruentV",44,1,504,"603"
"1002","603",9,4,79,"Modification1B","PosNegB_BOTTOMCongruentH",50,1,361,"603"
"1003","603",9,4,80,"Modification1B","PosNegB_TOPCongruentV",44,1,393,"603"
"1004","603",9,4,81,"Modification1B","PosNegB_BOTTOMCongruentV",44,1,527,"603"
"1005","603",9,4,82,"Modification1B","PosNegB_BOTTOMCongruentH",50,1,343,"603"
"1006","603",9,4,83,"Modification1B","PosNegB_TOPCongruentV",44,1,447,"603"
"1007","603",9,4,84,"Modification1B","PosNegB_BOTTOMCongruentV",44,1,555,"603"
"1008","603",9,4,85,"Modification1B","PosNegB_TOPCongruentH",50,1,587,"603"
"1009","603",9,4,86,"Modification1B","PosNegB_TOPIncongruentH",50,1,433,"603"
"1010","603",9,4,87,"Modification1B","PosNegB_TOPCongruentV",44,1,437,"603"
"1011","603",9,4,88,"Modification1B","PosNegB_BOTTOMCongruentH",50,1,457,"603"
"1012","603",9,4,89,"Modification1B","PosNegB_BOTTOMCongruentV",44,1,468,"603"
"1013","603",9,4,90,"Modification1B","PosNegB_TOPCongruentV",44,1,567,"603"
"1014","603",9,4,91,"Modification1B","PosNegB_BOTTOMCongruentH",50,1,390,"603"
"1015","603",9,4,92,"Modification1B","PosNegB_TOPCongruentV",44,1,467,"603"
"1016","603",9,4,93,"Modification1B","PosNegB_TOPCongruentV",44,1,454,"603"
"1017","603",9,4,94,"Modification1B","PosNegB_TOPCongruentH",50,1,394,"603"
"1018","603",9,4,95,"Modification1B","PosNegB_BOTTOMIncongruentV",44,1,944,"603"
"1019","603",9,4,96,"Modification1B","PosNegB_BOTTOMCongruentH",50,1,1975,"603"
"1020","603",9,5,1,"Modification2B","PosNegB_BOTTOMCongruentH",50,1,468,"603"
"1021","603",9,5,2,"Modification2B","PosNegB_TOPCongruentV",44,1,494,"603"
"1022","603",9,5,3,"Modification2B","PosNegB_TOPCongruentH",50,1,584,"603"
"1023","603",9,5,4,"Modification2B","PosNegB_BOTTOMCongruentV",44,1,422,"603"
"1024","603",9,5,5,"Modification2B","PosNegB_TOPCongruentH",50,1,499,"603"
"1025","603",9,5,6,"Modification2B","PosNegB_BOTTOMCongruentH",50,1,501,"603"
"1026","603",9,5,7,"Modification2B","PosNegB_BOTTOMCongruentH",50,1,390,"603"
"1027","603",9,5,8,"Modification2B","PosNegB_TOPCongruentV",44,1,484,"603"
"1028","603",9,5,9,"Modification2B","PosNegB_TOPCongruentH",50,1,414,"603"
"1029","603",9,5,10,"Modification2B","PosNegB_BOTTOMCongruentV",44,1,515,"603"
"1030","603",9,5,11,"Modification2B","PosNegB_BOTTOMIncongruentV",44,1,853,"603"
"1031","603",9,5,12,"Modification2B","PosNegB_BOTTOMCongruentV",50,0,440,"603"
"1032","603",9,5,13,"Modification2B","PosNegB_TOPCongruentV",44,1,580,"603"
"1033","603",9,5,14,"Modification2B","PosNegB_TOPCongruentV",44,1,555,"603"
"1034","603",9,5,15,"Modification2B","PosNegB_BOTTOMCongruentH",50,1,410,"603"
"1035","603",9,5,16,"Modification2B","PosNegB_BOTTOMCongruentH",50,1,519,"603"
"1036","603",9,5,17,"Modification2B","PosNegB_TOPIncongruentV",44,1,576,"603"
"1037","603",9,5,18,"Modification2B","PosNegB_BOTTOMCongruentV",44,1,599,"603"
"1038","603",9,5,19,"Modification2B","PosNegB_BOTTOMCongruentH",44,0,565,"603"
"1039","603",9,5,20,"Modification2B","PosNegB_BOTTOMCongruentH",50,1,668,"603"
"1040","603",9,5,21,"Modification2B","PosNegB_BOTTOMCongruentV",44,1,559,"603"
"1041","603",9,5,22,"Modification2B","PosNegB_TOPCongruentV",44,1,382,"603"
"1042","603",9,5,23,"Modification2B","PosNegB_TOPCongruentH",50,1,676,"603"
"1043","603",9,5,24,"Modification2B","PosNegB_TOPCongruentV",44,1,567,"603"
"1044","603",9,5,25,"Modification2B","PosNegB_TOPIncongruentH",50,1,909,"603"
"1045","603",9,5,26,"Modification2B","PosNegB_BOTTOMIncongruentH",50,1,1119,"603"
"1046","603",9,5,27,"Modification2B","PosNegB_TOPCongruentV",44,1,599,"603"
"1047","603",9,5,28,"Modification2B","PosNegB_TOPCongruentV",44,1,741,"603"
"1048","603",9,5,29,"Modification2B","PosNegB_TOPCongruentH",50,1,461,"603"
"1049","603",9,5,30,"Modification2B","PosNegB_TOPCongruentH",50,1,544,"603"
"1050","603",9,5,31,"Modification2B","PosNegB_TOPIncongruentV",44,1,432,"603"
"1051","603",9,5,32,"Modification2B","PosNegB_TOPCongruentH",50,1,421,"603"
"1052","603",9,5,33,"Modification2B","PosNegB_BOTTOMCongruentH",50,1,545,"603"
"1053","603",9,5,34,"Modification2B","PosNegB_TOPCongruentV",44,1,569,"603"
"1054","603",9,5,35,"Modification2B","PosNegB_TOPCongruentV",44,1,480,"603"
"1055","603",9,5,36,"Modification2B","PosNegB_BOTTOMCongruentH",50,1,419,"603"
"1056","603",9,5,37,"Modification2B","PosNegB_TOPCongruentH",50,1,391,"603"
"1057","603",9,5,38,"Modification2B","PosNegB_BOTTOMCongruentV",44,1,437,"603"
"1058","603",9,5,39,"Modification2B","PosNegB_TOPCongruentV",44,1,657,"603"
"1059","603",9,5,40,"Modification2B","PosNegB_TOPCongruentV",44,1,461,"603"
"1060","603",9,5,41,"Modification2B","PosNegB_TOPCongruentH",50,1,456,"603"
"1061","603",9,5,42,"Modification2B","PosNegB_TOPCongruentH",50,1,531,"603"
"1062","603",9,5,43,"Modification2B","PosNegB_TOPCongruentV",44,1,508,"603"
"1063","603",9,5,44,"Modification2B","PosNegB_TOPCongruentH",50,1,565,"603"
"1064","603",9,5,45,"Modification2B","PosNegB_BOTTOMCongruentH",50,1,1172,"603"
"1065","603",9,5,46,"Modification2B","PosNegB_TOPCongruentV",44,1,523,"603"
"1066","603",9,5,47,"Modification2B","PosNegB_TOPCongruentV",44,1,539,"603"
"1067","603",9,5,48,"Modification2B","PosNegB_BOTTOMCongruentV",44,1,2355,"603"
"1068","603",9,5,49,"Modification2B","PosNegB_BOTTOMCongruentH",50,1,523,"603"
"1069","603",9,5,50,"Modification2B","PosNegB_TOPCongruentH",50,1,627,"603"
"1070","603",9,5,51,"Modification2B","PosNegB_TOPCongruentH",50,1,1040,"603"
"1071","603",9,5,52,"Modification2B","PosNegB_BOTTOMCongruentV",44,1,460,"603"
"1072","603",9,5,53,"Modification2B","PosNegB_TOPCongruentH",50,1,535,"603"
"1073","603",9,5,54,"Modification2B","PosNegB_TOPCongruentH",50,1,607,"603"
"1074","603",9,5,55,"Modification2B","PosNegB_BOTTOMCongruentH",50,1,541,"603"
"1075","603",9,5,56,"Modification2B","PosNegB_TOPCongruentV",44,1,525,"603"
"1076","603",9,5,57,"Modification2B","PosNegB_BOTTOMCongruentH",50,1,390,"603"
"1077","603",9,5,58,"Modification2B","PosNegB_BOTTOMCongruentH",50,1,363,"603"
"1078","603",9,5,59,"Modification2B","PosNegB_BOTTOMCongruentV",44,1,459,"603"
"1079","603",9,5,60,"Modification2B","PosNegB_BOTTOMCongruentV",44,1,486,"603"
"1080","603",9,5,61,"Modification2B","PosNegB_TOPCongruentV",44,1,480,"603"
"1081","603",9,5,62,"Modification2B","PosNegB_TOPCongruentH",50,1,675,"603"
"1082","603",9,5,63,"Modification2B","PosNegB_BOTTOMCongruentH",50,1,397,"603"
"1083","603",9,5,64,"Modification2B","PosNegB_TOPIncongruentH",50,1,491,"603"
"1084","603",9,5,65,"Modification2B","PosNegB_BOTTOMCongruentV",44,1,829,"603"
"1085","603",9,5,66,"Modification2B","PosNegB_BOTTOMCongruentH",50,1,498,"603"
"1086","603",9,5,67,"Modification2B","PosNegB_TOPCongruentV",44,1,588,"603"
"1087","603",9,5,68,"Modification2B","PosNegB_TOPCongruentV",44,1,890,"603"
"1088","603",9,5,69,"Modification2B","PosNegB_BOTTOMCongruentV",44,1,700,"603"
"1089","603",9,5,70,"Modification2B","PosNegB_BOTTOMCongruentH",50,1,589,"603"
"1090","603",9,5,71,"Modification2B","PosNegB_BOTTOMCongruentV",44,1,579,"603"
"1091","603",9,5,72,"Modification2B","PosNegB_TOPCongruentH",50,1,498,"603"
"1092","603",9,5,73,"Modification2B","PosNegB_BOTTOMCongruentV",44,1,532,"603"
"1093","603",9,5,74,"Modification2B","PosNegB_TOPCongruentH",50,1,540,"603"
"1094","603",9,5,75,"Modification2B","PosNegB_BOTTOMCongruentV",44,1,660,"603"
"1095","603",9,5,76,"Modification2B","PosNegB_BOTTOMCongruentH",50,1,447,"603"
"1096","603",9,5,77,"Modification2B","PosNegB_TOPCongruentH",50,1,756,"603"
"1097","603",9,5,78,"Modification2B","PosNegB_BOTTOMCongruentV",44,1,491,"603"
"1098","603",9,5,79,"Modification2B","PosNegB_BOTTOMIncongruentH",50,1,869,"603"
"1099","603",9,5,80,"Modification2B","PosNegB_TOPCongruentH",50,1,439,"603"
"1100","603",9,5,81,"Modification2B","PosNegB_BOTTOMCongruentV",44,1,500,"603"
"1101","603",9,5,82,"Modification2B","PosNegB_TOPCongruentH",50,1,477,"603"
"1102","603",9,5,83,"Modification2B","PosNegB_TOPCongruentH",50,1,544,"603"
"1103","603",9,5,84,"Modification2B","PosNegB_BOTTOMCongruentV",44,1,447,"603"
"1104","603",9,5,85,"Modification2B","PosNegB_TOPCongruentV",44,1,491,"603"
"1105","603",9,5,86,"Modification2B","PosNegB_BOTTOMCongruentH",50,1,477,"603"
"1106","603",9,5,87,"Modification2B","PosNegB_BOTTOMCongruentH",50,1,480,"603"
"1107","603",9,5,88,"Modification2B","PosNegB_BOTTOMIncongruentV",44,1,1203,"603"
"1108","603",9,5,89,"Modification2B","PosNegB_BOTTOMCongruentV",44,1,1160,"603"
"1109","603",9,5,90,"Modification2B","PosNegB_TOPCongruentV",44,1,471,"603"
"1110","603",9,5,91,"Modification2B","PosNegB_BOTTOMCongruentH",50,1,690,"603"
"1111","603",9,5,92,"Modification2B","PosNegB_BOTTOMCongruentV",44,1,564,"603"
"1112","603",9,5,93,"Modification2B","PosNegB_BOTTOMCongruentH",50,1,412,"603"
"1113","603",9,5,94,"Modification2B","PosNegB_TOPCongruentV",44,1,497,"603"
"1114","603",9,5,95,"Modification2B","PosNegB_BOTTOMCongruentV",44,1,515,"603"
"1115","603",9,5,96,"Modification2B","PosNegB_BOTTOMCongruentV",44,1,628,"603"
"1116","603",9,6,1,"Modification3B","PosNegB_TOPCongruentV",44,1,454,"603"
"1117","603",9,6,2,"Modification3B","PosNegB_TOPCongruentV",44,1,425,"603"
"1118","603",9,6,3,"Modification3B","PosNegB_BOTTOMCongruentV",44,1,542,"603"
"1119","603",9,6,4,"Modification3B","PosNegB_BOTTOMCongruentH",50,1,558,"603"
"1120","603",9,6,5,"Modification3B","PosNegB_TOPCongruentH",50,1,574,"603"
"1121","603",9,6,6,"Modification3B","PosNegB_BOTTOMCongruentH",50,1,532,"603"
"1122","603",9,6,7,"Modification3B","PosNegB_TOPCongruentV",44,1,485,"603"
"1123","603",9,6,8,"Modification3B","PosNegB_BOTTOMCongruentH",50,1,399,"603"
"1124","603",9,6,9,"Modification3B","PosNegB_BOTTOMCongruentH",50,1,428,"603"
"1125","603",9,6,10,"Modification3B","PosNegB_BOTTOMCongruentH",50,1,625,"603"
"1126","603",9,6,11,"Modification3B","PosNegB_TOPCongruentV",44,1,445,"603"
"1127","603",9,6,12,"Modification3B","PosNegB_BOTTOMCongruentV",44,1,554,"603"
"1128","603",9,6,13,"Modification3B","PosNegB_TOPCongruentV",44,1,577,"603"
"1129","603",9,6,14,"Modification3B","PosNegB_BOTTOMCongruentH",50,1,359,"603"
"1130","603",9,6,15,"Modification3B","PosNegB_BOTTOMCongruentH",50,1,511,"603"
"1131","603",9,6,16,"Modification3B","PosNegB_BOTTOMCongruentV",44,1,440,"603"
"1132","603",9,6,17,"Modification3B","PosNegB_TOPCongruentH",50,1,716,"603"
"1133","603",9,6,18,"Modification3B","PosNegB_TOPCongruentH",50,1,317,"603"
"1134","603",9,6,19,"Modification3B","PosNegB_TOPCongruentH",44,0,341,"603"
"1135","603",9,6,20,"Modification3B","PosNegB_TOPCongruentV",44,1,669,"603"
"1136","603",9,6,21,"Modification3B","PosNegB_BOTTOMCongruentV",44,1,504,"603"
"1137","603",9,6,22,"Modification3B","PosNegB_TOPCongruentV",44,1,681,"603"
"1138","603",9,6,23,"Modification3B","PosNegB_TOPCongruentV",44,1,412,"603"
"1139","603",9,6,24,"Modification3B","PosNegB_BOTTOMCongruentH",50,1,369,"603"
"1140","603",9,6,25,"Modification3B","PosNegB_BOTTOMCongruentV",44,1,536,"603"
"1141","603",9,6,26,"Modification3B","PosNegB_BOTTOMCongruentH",50,1,640,"603"
"1142","603",9,6,27,"Modification3B","PosNegB_TOPIncongruentH",50,1,628,"603"
"1143","603",9,6,28,"Modification3B","PosNegB_BOTTOMCongruentV",44,1,577,"603"
"1144","603",9,6,29,"Modification3B","PosNegB_TOPCongruentH",50,1,495,"603"
"1145","603",9,6,30,"Modification3B","PosNegB_BOTTOMCongruentV",44,1,641,"603"
"1146","603",9,6,31,"Modification3B","PosNegB_BOTTOMCongruentH",50,1,805,"603"
"1147","603",9,6,32,"Modification3B","PosNegB_TOPCongruentH",50,1,899,"603"
"1148","603",9,6,33,"Modification3B","PosNegB_BOTTOMCongruentH",50,1,389,"603"
"1149","603",9,6,34,"Modification3B","PosNegB_BOTTOMCongruentV",44,1,635,"603"
"1150","603",9,6,35,"Modification3B","PosNegB_BOTTOMCongruentH",50,1,751,"603"
"1151","603",9,6,36,"Modification3B","PosNegB_TOPCongruentV",44,1,582,"603"
"1152","603",9,6,37,"Modification3B","PosNegB_BOTTOMCongruentH",50,1,509,"603"
"1153","603",9,6,38,"Modification3B","PosNegB_BOTTOMCongruentV",44,1,790,"603"
"1154","603",9,6,39,"Modification3B","PosNegB_BOTTOMIncongruentV",44,1,508,"603"
"1155","603",9,6,40,"Modification3B","PosNegB_BOTTOMCongruentV",44,1,813,"603"
"1156","603",9,6,41,"Modification3B","PosNegB_TOPCongruentH",50,1,987,"603"
"1157","603",9,6,42,"Modification3B","PosNegB_TOPIncongruentH",50,1,1281,"603"
"1158","603",9,6,43,"Modification3B","PosNegB_BOTTOMCongruentV",44,1,1059,"603"
"1159","603",9,6,44,"Modification3B","PosNegB_BOTTOMCongruentH",44,0,471,"603"
"1160","603",9,6,45,"Modification3B","PosNegB_BOTTOMCongruentH",50,1,698,"603"
"1161","603",9,6,46,"Modification3B","PosNegB_TOPCongruentV",44,1,523,"603"
"1162","603",9,6,47,"Modification3B","PosNegB_TOPCongruentH",50,1,492,"603"
"1163","603",9,6,48,"Modification3B","PosNegB_TOPCongruentH",50,1,734,"603"
"1164","603",9,6,49,"Modification3B","PosNegB_TOPCongruentV",44,1,598,"603"
"1165","603",9,6,50,"Modification3B","PosNegB_TOPCongruentH",50,1,564,"603"
"1166","603",9,6,51,"Modification3B","PosNegB_TOPCongruentH",50,1,651,"603"
"1167","603",9,6,52,"Modification3B","PosNegB_TOPCongruentV",44,1,447,"603"
"1168","603",9,6,53,"Modification3B","PosNegB_TOPIncongruentV",44,1,683,"603"
"1169","603",9,6,54,"Modification3B","PosNegB_TOPCongruentV",44,1,437,"603"
"1170","603",9,6,55,"Modification3B","PosNegB_BOTTOMCongruentV",44,1,721,"603"
"1171","603",9,6,56,"Modification3B","PosNegB_BOTTOMCongruentV",44,1,1145,"603"
"1172","603",9,6,57,"Modification3B","PosNegB_TOPCongruentV",44,1,433,"603"
"1173","603",9,6,58,"Modification3B","PosNegB_BOTTOMCongruentV",44,1,589,"603"
"1174","603",9,6,59,"Modification3B","PosNegB_BOTTOMCongruentH",50,1,427,"603"
"1175","603",9,6,60,"Modification3B","PosNegB_BOTTOMCongruentV",44,1,560,"603"
"1176","603",9,6,61,"Modification3B","PosNegB_BOTTOMCongruentH",50,1,1287,"603"
"1177","603",9,6,62,"Modification3B","PosNegB_BOTTOMCongruentH",50,1,425,"603"
"1178","603",9,6,63,"Modification3B","PosNegB_BOTTOMCongruentV",44,1,542,"603"
"1179","603",9,6,64,"Modification3B","PosNegB_TOPCongruentH",50,1,574,"603"
"1180","603",9,6,65,"Modification3B","PosNegB_TOPCongruentV",44,1,1949,"603"
"1181","603",9,6,66,"Modification3B","PosNegB_TOPCongruentH",50,1,429,"603"
"1182","603",9,6,67,"Modification3B","PosNegB_TOPCongruentH",50,1,601,"603"
"1183","603",9,6,68,"Modification3B","PosNegB_BOTTOMIncongruentV",44,1,895,"603"
"1184","603",9,6,69,"Modification3B","PosNegB_BOTTOMCongruentH",50,1,809,"603"
"1185","603",9,6,70,"Modification3B","PosNegB_BOTTOMCongruentV",44,1,1902,"603"
"1186","603",9,6,71,"Modification3B","PosNegB_TOPCongruentH",50,1,695,"603"
"1187","603",9,6,72,"Modification3B","PosNegB_BOTTOMCongruentV",44,1,785,"603"
"1188","603",9,6,73,"Modification3B","PosNegB_TOPCongruentV",50,0,4407,"603"
"1189","603",9,6,74,"Modification3B","PosNegB_BOTTOMCongruentV",44,1,589,"603"
"1190","603",9,6,75,"Modification3B","PosNegB_TOPIncongruentV",44,1,371,"603"
"1191","603",9,6,76,"Modification3B","PosNegB_BOTTOMCongruentH",50,1,705,"603"
"1192","603",9,6,77,"Modification3B","PosNegB_TOPCongruentH",50,1,459,"603"
"1193","603",9,6,78,"Modification3B","PosNegB_BOTTOMIncongruentH",50,1,838,"603"
"1194","603",9,6,79,"Modification3B","PosNegB_TOPCongruentH",50,1,594,"603"
"1195","603",9,6,80,"Modification3B","PosNegB_TOPCongruentH",50,1,560,"603"
"1196","603",9,6,81,"Modification3B","PosNegB_TOPCongruentH",50,1,503,"603"
"1197","603",9,6,82,"Modification3B","PosNegB_TOPCongruentV",44,1,937,"603"
"1198","603",9,6,83,"Modification3B","PosNegB_BOTTOMCongruentH",50,1,969,"603"
"1199","603",9,6,84,"Modification3B","PosNegB_TOPCongruentH",50,1,399,"603"
"1200","603",9,6,85,"Modification3B","PosNegB_TOPCongruentV",44,1,437,"603"
"1201","603",9,6,86,"Modification3B","PosNegB_TOPCongruentH",50,1,401,"603"
"1202","603",9,6,87,"Modification3B","PosNegB_BOTTOMCongruentV",44,1,422,"603"
"1203","603",9,6,88,"Modification3B","PosNegB_TOPCongruentV",44,1,531,"603"
"1204","603",9,6,89,"Modification3B","PosNegB_BOTTOMCongruentH",50,1,611,"603"
"1205","603",9,6,90,"Modification3B","PosNegB_BOTTOMCongruentV",44,1,393,"603"
"1206","603",9,6,91,"Modification3B","PosNegB_BOTTOMCongruentV",44,1,583,"603"
"1207","603",9,6,92,"Modification3B","PosNegB_TOPCongruentV",44,1,461,"603"
"1208","603",9,6,93,"Modification3B","PosNegB_TOPCongruentH",50,1,536,"603"
"1209","603",9,6,94,"Modification3B","PosNegB_BOTTOMIncongruentH",50,1,768,"603"
"1210","603",9,6,95,"Modification3B","PosNegB_TOPCongruentV",44,1,1127,"603"
"1211","603",9,6,96,"Modification3B","PosNegB_TOPCongruentV",44,1,983,"603"
"1212","603",9,7,1,"break","break1",0,0,120000,"603"
"1213","603",9,8,1,"Modification4B","PosNegB_TOPCongruentH",50,1,408,"603"
"1214","603",9,8,2,"Modification4B","PosNegB_BOTTOMCongruentH",50,1,381,"603"
"1215","603",9,8,3,"Modification4B","PosNegB_TOPCongruentV",44,1,387,"603"
"1216","603",9,8,4,"Modification4B","PosNegB_BOTTOMCongruentV",44,1,433,"603"
"1217","603",9,8,5,"Modification4B","PosNegB_BOTTOMCongruentH",50,1,341,"603"
"1218","603",9,8,6,"Modification4B","PosNegB_BOTTOMCongruentH",50,1,349,"603"
"1219","603",9,8,7,"Modification4B","PosNegB_BOTTOMCongruentV",44,1,421,"603"
"1220","603",9,8,8,"Modification4B","PosNegB_TOPCongruentH",50,1,482,"603"
"1221","603",9,8,9,"Modification4B","PosNegB_BOTTOMCongruentV",44,1,428,"603"
"1222","603",9,8,10,"Modification4B","PosNegB_TOPCongruentV",44,1,505,"603"
"1223","603",9,8,11,"Modification4B","PosNegB_TOPCongruentV",44,1,586,"603"
"1224","603",9,8,12,"Modification4B","PosNegB_BOTTOMIncongruentV",44,1,736,"603"
"1225","603",9,8,13,"Modification4B","PosNegB_BOTTOMCongruentV",44,1,512,"603"
"1226","603",9,8,14,"Modification4B","PosNegB_BOTTOMCongruentH",50,1,489,"603"
"1227","603",9,8,15,"Modification4B","PosNegB_TOPIncongruentV",44,1,411,"603"
"1228","603",9,8,16,"Modification4B","PosNegB_BOTTOMCongruentH",50,1,609,"603"
"1229","603",9,8,17,"Modification4B","PosNegB_TOPIncongruentH",50,1,422,"603"
"1230","603",9,8,18,"Modification4B","PosNegB_TOPCongruentH",50,1,547,"603"
"1231","603",9,8,19,"Modification4B","PosNegB_BOTTOMIncongruentH",50,1,1187,"603"
"1232","603",9,8,20,"Modification4B","PosNegB_BOTTOMCongruentH",50,1,649,"603"
"1233","603",9,8,21,"Modification4B","PosNegB_BOTTOMCongruentV",44,1,581,"603"
"1234","603",9,8,22,"Modification4B","PosNegB_TOPCongruentH",50,1,507,"603"
"1235","603",9,8,23,"Modification4B","PosNegB_TOPIncongruentV",44,1,477,"603"
"1236","603",9,8,24,"Modification4B","PosNegB_TOPCongruentV",44,1,447,"603"
"1237","603",9,8,25,"Modification4B","PosNegB_BOTTOMCongruentV",50,0,547,"603"
"1238","603",9,8,26,"Modification4B","PosNegB_TOPCongruentH",50,1,563,"603"
"1239","603",9,8,27,"Modification4B","PosNegB_TOPCongruentH",50,1,371,"603"
"1240","603",9,8,28,"Modification4B","PosNegB_TOPCongruentH",50,1,457,"603"
"1241","603",9,8,29,"Modification4B","PosNegB_BOTTOMCongruentH",50,1,517,"603"
"1242","603",9,8,30,"Modification4B","PosNegB_BOTTOMCongruentH",50,1,485,"603"
"1243","603",9,8,31,"Modification4B","PosNegB_BOTTOMCongruentH",50,1,624,"603"
"1244","603",9,8,32,"Modification4B","PosNegB_TOPCongruentH",50,1,460,"603"
"1245","603",9,8,33,"Modification4B","PosNegB_TOPCongruentH",50,1,415,"603"
"1246","603",9,8,34,"Modification4B","PosNegB_TOPCongruentV",44,1,437,"603"
"1247","603",9,8,35,"Modification4B","PosNegB_BOTTOMCongruentV",44,1,785,"603"
"1248","603",9,8,36,"Modification4B","PosNegB_BOTTOMCongruentV",44,1,543,"603"
"1249","603",9,8,37,"Modification4B","PosNegB_BOTTOMCongruentH",50,1,623,"603"
"1250","603",9,8,38,"Modification4B","PosNegB_TOPCongruentH",50,1,492,"603"
"1251","603",9,8,39,"Modification4B","PosNegB_BOTTOMCongruentH",50,1,549,"603"
"1252","603",9,8,40,"Modification4B","PosNegB_TOPCongruentV",44,1,693,"603"
"1253","603",9,8,41,"Modification4B","PosNegB_BOTTOMIncongruentH",50,1,1479,"603"
"1254","603",9,8,42,"Modification4B","PosNegB_TOPCongruentH",50,1,737,"603"
"1255","603",9,8,43,"Modification4B","PosNegB_TOPIncongruentH",50,1,465,"603"
"1256","603",9,8,44,"Modification4B","PosNegB_TOPCongruentV",44,1,453,"603"
"1257","603",9,8,45,"Modification4B","PosNegB_BOTTOMIncongruentV",44,1,1392,"603"
"1258","603",9,8,46,"Modification4B","PosNegB_BOTTOMCongruentV",44,1,510,"603"
"1259","603",9,8,47,"Modification4B","PosNegB_BOTTOMCongruentV",44,1,567,"603"
"1260","603",9,8,48,"Modification4B","PosNegB_TOPCongruentV",44,1,598,"603"
"1261","603",9,8,49,"Modification4B","PosNegB_BOTTOMCongruentH",50,1,1092,"603"
"1262","603",9,8,50,"Modification4B","PosNegB_TOPCongruentH",50,1,566,"603"
"1263","603",9,8,51,"Modification4B","PosNegB_BOTTOMCongruentV",44,1,517,"603"
"1264","603",9,8,52,"Modification4B","PosNegB_TOPCongruentV",44,1,590,"603"
"1265","603",9,8,53,"Modification4B","PosNegB_BOTTOMCongruentV",44,1,475,"603"
"1266","603",9,8,54,"Modification4B","PosNegB_TOPCongruentV",44,1,870,"603"
"1267","603",9,8,55,"Modification4B","PosNegB_TOPCongruentH",50,1,1033,"603"
"1268","603",9,8,56,"Modification4B","PosNegB_BOTTOMCongruentH",50,1,3101,"603"
"1269","603",9,8,57,"Modification4B","PosNegB_TOPCongruentV",44,1,502,"603"
"1270","603",9,8,58,"Modification4B","PosNegB_TOPCongruentV",44,1,415,"603"
"1271","603",9,8,59,"Modification4B","PosNegB_TOPCongruentH",50,1,484,"603"
"1272","603",9,8,60,"Modification4B","PosNegB_BOTTOMCongruentV",44,1,670,"603"
"1273","603",9,8,61,"Modification4B","PosNegB_BOTTOMCongruentV",50,0,441,"603"
"1274","603",9,8,62,"Modification4B","PosNegB_BOTTOMCongruentV",44,1,453,"603"
"1275","603",9,8,63,"Modification4B","PosNegB_BOTTOMCongruentV",44,1,408,"603"
"1276","603",9,8,64,"Modification4B","PosNegB_TOPCongruentV",44,1,374,"603"
"1277","603",9,8,65,"Modification4B","PosNegB_BOTTOMCongruentH",50,1,436,"603"
"1278","603",9,8,66,"Modification4B","PosNegB_BOTTOMCongruentH",50,1,560,"603"
"1279","603",9,8,67,"Modification4B","PosNegB_TOPCongruentV",44,1,576,"603"
"1280","603",9,8,68,"Modification4B","PosNegB_TOPCongruentH",50,1,598,"603"
"1281","603",9,8,69,"Modification4B","PosNegB_TOPCongruentH",50,1,828,"603"
"1282","603",9,8,70,"Modification4B","PosNegB_BOTTOMCongruentH",50,1,929,"603"
"1283","603",9,8,71,"Modification4B","PosNegB_BOTTOMCongruentV",44,1,841,"603"
"1284","603",9,8,72,"Modification4B","PosNegB_TOPCongruentV",44,1,685,"603"
"1285","603",9,8,73,"Modification4B","PosNegB_TOPCongruentV",44,1,855,"603"
"1286","603",9,8,74,"Modification4B","PosNegB_TOPCongruentH",44,0,547,"603"
"1287","603",9,8,75,"Modification4B","PosNegB_BOTTOMCongruentH",50,1,683,"603"
"1288","603",9,8,76,"Modification4B","PosNegB_TOPCongruentV",44,1,1397,"603"
"1289","603",9,8,77,"Modification4B","PosNegB_TOPCongruentV",44,1,459,"603"
"1290","603",9,8,78,"Modification4B","PosNegB_TOPCongruentV",44,1,502,"603"
"1291","603",9,8,79,"Modification4B","PosNegB_TOPCongruentH",50,1,496,"603"
"1292","603",9,8,80,"Modification4B","PosNegB_TOPCongruentH",50,1,369,"603"
